workerid,proliferate.condition,accuracy,coding,failed_audio,failed_images,failed_video,internal_node_id,lex_code,response,result,rt,sib_code,slider_start,spk,stimulus,success,time_elapsed,timeout,trial_index,trial_type,triplet_id,error
910,list3,,,[],[],[],0.0-0.0,,,,,,,,,True,2749,False,0,preload,,
910,list3,,,,,,0.0-1.0,,0,,9656,,,,"<p><font size='3'>DESCRIPTION: You are invited to participate in a research study. Its general purpose is to understand how people perceive speech. We are interested in how people make use of varying properties of language to infer social information about a speaker. In this study, you will hear spoken sentences, and you will be asked to make simple decisions about the sentences you hear. Following this, you will be asked to complete a short questionnaire, where you will indicate on a sliding scale how much you agree or disagree with a series of statements. You will also be asked to complete an optional demographic survey. <br><br>TIME INVOLVEMENT: Your participation will take approximately 10 to 20 minutes. <br><br>RISKS AND BENEFITS: The foreseeable risks associated with this study are minimal. This judgment is based on a large body of experience with the same or similar procedures with people of similar ages, sex, origins, etc. Study data will be stored securely, in compliance with Stanford University standards, minimizing the risk of confidentiality breach. There are no known benefits to you for participating in this study, and we cannot and do not guarantee or promise that you will receive any benefits from this study. You will help us to understand how people perceive spoken language. <br><br>PAYMENT: You will be paid at the posted rate. <br><br>PARTICIPANT RIGHTS: If you have read this form and have decided to participate in this project, please understand your participation is voluntary and you have the right to withdraw your consent or discontinue participation at any time without penalty or loss of benefits to which you are otherwise entitled. The alternative is not to participate. You have the right to refuse to answer particular questions. The results of this research study may be presented at scientific or professional meetings or published in scientific journals. Your individual privacy will be maintained in all published and written data resulting from the study. In accordance with scientific norms, the data from this study may be used or shared with other researchers for future research (after removing personally identifying information) without additional consent from you. <br><br>CONTACT INFORMATION: If you have any questions, concerns or complaints about this research study, its procedures, risks and benefits, you should contact the Protocol Director Grace Brown at (616) 498-8188. If you are not satisfied with how this study is being conducted, or if you have any concerns, complaints, or general questions about the research or your rights as a participant, please contact the Stanford Institutional Review Board (IRB) to speak to someone independent of the research team at (650) 723-2480 or toll free at 1-866-680-2906. You can also write to the Stanford IRB, Stanford University, 3000 El Camino Real, Five Palo Alto Square, 4th Floor, Palo Alto, CA 94306 USA. <br><br>WAIVER OF DOCUMENTATION: If you agree to participate in this research, please click the 'Continue' button. </font></p>",,12407,,1,html-button-response,,
910,list3,,,,,,0.0-2.0,,0,,6612,,,,"<p><font size='3'>This study requires you to listen to audio clips. To ensure you can adequately hear the audio presented in this study, the next page will have an audio attention check. Please wear headphones, and be prepared to adjust the volume on your device if necessary. <br><br> When you are ready to begin the audio attention check, click 'Start'. </font></p>",,19020,,2,html-button-response,,
910,list3,,,,,,0.0-3.0,,2,correct,5370,,,,audio/gift.wav,,24714,,3,audio-button-response,,
910,list3,,,,,,0.0-4.0,,0,,2157,,,,<p>Correct! You are ready to begin the study.</p>,,26873,,4,html-button-response,,
910,list3,,,,,,0.0-5.0,,0,,24287,,,,"<p><font size='3'>In this experiment, you will listen to a series of sentences, produced by different speakers. While listening to each sentence, you will be prompted to rate the social characteristics of its speaker. To rate the social characteristics of a speaker, click along the scale that appears on your screen. You may click along this scale after the speaker stops talking. Try to respond as quickly as you can. If you do not respond within ten seconds, the experiment will advance automatically. There will be a progress bar at the top of the screen. When you're ready to hear the first speaker, click ‘Start’. </font></p>",,51162,,5,html-button-response,,
910,list3,,,,,,0.0-6.0-0.0,neutral,1166,,5950,control,5000,246,audio/246_CN4.wav,,57113,,6,audio-slider-response,4,
910,list3,,,,,,0.0-6.0-1.0,,,,,,,,,,57617,,7,html-keyboard-response,,
910,list3,,,,,,0.0-6.0-0.1,neutral,0,,5863,control,5000,246,audio/246_CN2.wav,,63479,,8,audio-slider-response,2,
910,list3,,,,,,0.0-6.0-1.1,,,,,,,,,,63984,,9,html-keyboard-response,,
910,list3,,,,,,0.0-6.0-0.2,neutral,4168,,5927,control,5000,723,audio/723_CN9.wav,,69915,,10,audio-slider-response,9,
910,list3,,,,,,0.0-6.0-1.2,,,,,,,,,,70420,,11,html-keyboard-response,,
910,list3,,,,,,0.0-6.0-0.3,neutral,5659,,5172,control,5000,723,audio/723_CN14.wav,,75595,,12,audio-slider-response,14,
910,list3,,,,,,0.0-6.0-1.3,,,,,,,,,,76097,,13,html-keyboard-response,,
910,list3,,,,,,0.0-6.0-0.4,neutral,462,,6403,high,5000,246,audio/246_SN10_high.wav,,82503,,14,audio-slider-response,10,
910,list3,,,,,,0.0-6.0-1.4,,,,,,,,,,83011,,15,html-keyboard-response,,
910,list3,,,,,,0.0-6.0-0.5,neutral,5601,,4145,mid,5000,723,audio/723_SN14_mid.wav,,87161,,16,audio-slider-response,14,
910,list3,,,,,,0.0-6.0-1.5,,,,,,,,,,87664,,17,html-keyboard-response,,
910,list3,,,,,,0.0-6.0-0.6,neutral,4495,,5573,control,5000,723,audio/723_CN15.wav,,93235,,18,audio-slider-response,15,
910,list3,,,,,,0.0-6.0-1.6,,,,,,,,,,93738,,19,html-keyboard-response,,
910,list3,,,,,,0.0-6.0-0.7,neutral,3475,,4882,control,5000,246,audio/246_CN7.wav,,98624,,20,audio-slider-response,7,
910,list3,,,,,,0.0-6.0-1.7,,,,,,,,,,99129,,21,html-keyboard-response,,
910,list3,,,,,,0.0-6.0-0.8,neutral,3433,,3576,control,5000,246,audio/246_CN15.wav,,102707,,22,audio-slider-response,15,
910,list3,,,,,,0.0-6.0-1.8,,,,,,,,,,103209,,23,html-keyboard-response,,
910,list3,,,,,,0.0-6.0-0.9,neutral,7240,,4470,control,5000,723,audio/723_CN5.wav,,107681,,24,audio-slider-response,5,
910,list3,,,,,,0.0-6.0-1.9,,,,,,,,,,108187,,25,html-keyboard-response,,
910,list3,,,,,,0.0-6.0-0.10,neutral,1974,,4203,control,5000,246,audio/246_CN10.wav,,112394,,26,audio-slider-response,10,
910,list3,,,,,,0.0-6.0-1.10,,,,,,,,,,112897,,27,html-keyboard-response,,
910,list3,,,,,,0.0-6.0-0.11,neutral,6343,,4748,high,5000,723,audio/723_SN16_high.wav,,117647,,28,audio-slider-response,16,
910,list3,,,,,,0.0-6.0-1.11,,,,,,,,,,118154,,29,html-keyboard-response,,
910,list3,,,,,,0.0-6.0-0.12,neutral,3746,,5944,low,5000,246,audio/246_SN9_low.wav,,124104,,30,audio-slider-response,9,
910,list3,,,,,,0.0-6.0-1.12,,,,,,,,,,124610,,31,html-keyboard-response,,
910,list3,,,,,,0.0-6.0-0.13,neutral,6371,,3994,control,5000,723,audio/723_CN1.wav,,128605,,32,audio-slider-response,1,
910,list3,,,,,,0.0-6.0-1.13,,,,,,,,,,129114,,33,html-keyboard-response,,
910,list3,,,,,,0.0-6.0-0.14,neutral,6031,,4394,control,5000,723,audio/723_CN8.wav,,133509,,34,audio-slider-response,8,
910,list3,,,,,,0.0-6.0-1.14,,,,,,,,,,134016,,35,html-keyboard-response,,
910,list3,,,,,,0.0-6.0-0.15,neutral,6485,,5497,mid,5000,723,audio/723_SN7_mid.wav,,139517,,36,audio-slider-response,7,
910,list3,,,,,,0.0-6.0-1.15,,,,,,,,,,140028,,37,html-keyboard-response,,
910,list3,,,,,,0.0-6.0-0.16,neutral,7372,,3297,high,5000,723,audio/723_SN21_high.wav,,143330,,38,audio-slider-response,21,
910,list3,,,,,,0.0-6.0-1.16,,,,,,,,,,143836,,39,html-keyboard-response,,
910,list3,,,,,,0.0-6.0-0.17,neutral,7110,,3576,control,5000,723,audio/723_CN16.wav,,147413,,40,audio-slider-response,16,
910,list3,,,,,,0.0-6.0-1.17,,,,,,,,,,147922,,41,html-keyboard-response,,
910,list3,,,,,,0.0-6.0-0.18,neutral,1698,,4336,control,5000,246,audio/246_CN3.wav,,152263,,42,audio-slider-response,3,
910,list3,,,,,,0.0-6.0-1.18,,,,,,,,,,152767,,43,html-keyboard-response,,
910,list3,,,,,,0.0-6.0-0.19,neutral,0,,4423,low,5000,246,audio/246_SN19_low.wav,,157190,,44,audio-slider-response,19,
910,list3,,,,,,0.0-6.0-1.19,,,,,,,,,,157698,,45,html-keyboard-response,,
910,list3,,,,,,0.0-6.0-0.20,neutral,1895,,4621,control,5000,246,audio/246_CN18.wav,,162319,,46,audio-slider-response,18,
910,list3,,,,,,0.0-6.0-1.20,,,,,,,,,,162826,,47,html-keyboard-response,,
910,list3,,,,,,0.0-6.0-0.21,neutral,1623,,3959,control,5000,246,audio/246_CN16.wav,,166786,,48,audio-slider-response,16,
910,list3,,,,,,0.0-6.0-1.21,,,,,,,,,,167288,,49,html-keyboard-response,,
910,list3,,,,,,0.0-6.0-0.22,neutral,8773,,4679,control,5000,723,audio/723_CN18.wav,,171971,,50,audio-slider-response,18,
910,list3,,,,,,0.0-6.0-1.22,,,,,,,,,,172472,,51,html-keyboard-response,,
910,list3,,,,,,0.0-6.0-0.23,neutral,6767,,3727,low,5000,723,audio/723_SN15_low.wav,,176202,,52,audio-slider-response,15,
910,list3,,,,,,0.0-6.0-1.23,,,,,,,,,,176705,,53,html-keyboard-response,,
910,list3,,,,,,0.0-6.0-0.24,neutral,7814,,2902,mid,5000,723,audio/723_SN13_mid.wav,,179610,,54,audio-slider-response,13,
910,list3,,,,,,0.0-6.0-1.24,,,,,,,,,,180114,,55,html-keyboard-response,,
910,list3,,,,,,0.0-6.0-0.25,neutral,1517,,5381,control,5000,246,audio/246_CN1.wav,,185494,,56,audio-slider-response,1,
910,list3,,,,,,0.0-6.0-1.25,,,,,,,,,,186000,,57,html-keyboard-response,,
910,list3,,,,,,0.0-6.0-0.26,neutral,2056,,5242,mid,5000,246,audio/246_SN7_mid.wav,,191242,,58,audio-slider-response,7,
910,list3,,,,,,0.0-6.0-1.26,,,,,,,,,,191744,,59,html-keyboard-response,,
910,list3,,,,,,0.0-6.0-0.27,neutral,8853,,4116,low,5000,723,audio/723_SN20_low.wav,,195866,,60,audio-slider-response,20,
910,list3,,,,,,0.0-6.0-1.27,,,,,,,,,,196371,,61,html-keyboard-response,,
910,list3,,,,,,0.0-6.0-0.28,neutral,137,,5712,low,5000,246,audio/246_SN18_low.wav,,202087,,62,audio-slider-response,18,
910,list3,,,,,,0.0-6.0-1.28,,,,,,,,,,202594,,63,html-keyboard-response,,
910,list3,,,,,,0.0-6.0-0.29,neutral,863,,4180,high,5000,246,audio/246_SN17_high.wav,,206778,,64,audio-slider-response,17,
910,list3,,,,,,0.0-6.0-1.29,,,,,,,,,,207284,,65,html-keyboard-response,,
910,list3,,,,,,0.0-6.0-0.30,neutral,1845,,5735,mid,5000,246,audio/246_SN8_mid.wav,,213022,,66,audio-slider-response,8,
910,list3,,,,,,0.0-6.0-1.30,,,,,,,,,,213530,,67,html-keyboard-response,,
910,list3,,,,,,0.0-6.0-0.31,neutral,560,,4023,control,5000,246,audio/246_CN20.wav,,217556,,68,audio-slider-response,20,
910,list3,,,,,,0.0-6.0-1.31,,,,,,,,,,218057,,69,html-keyboard-response,,
910,list3,,,,,,0.0-6.0-0.32,neutral,9045,,4313,control,5000,723,audio/723_CN17.wav,,222370,,70,audio-slider-response,17,
910,list3,,,,,,0.0-6.0-1.32,,,,,,,,,,222877,,71,html-keyboard-response,,
910,list3,,,,,,0.0-6.0-0.33,neutral,1359,,3982,control,5000,246,audio/246_CN14.wav,,226859,,72,audio-slider-response,14,
910,list3,,,,,,0.0-6.0-1.33,,,,,,,,,,227361,,73,html-keyboard-response,,
910,list3,,,,,,0.0-6.0-0.34,neutral,9835,,6496,low,5000,723,audio/723_SN19_low.wav,,233857,,74,audio-slider-response,19,
910,list3,,,,,,0.0-6.0-1.34,,,,,,,,,,234364,,75,html-keyboard-response,,
910,list3,,,,,,0.0-6.0-0.35,neutral,1118,,4470,mid,5000,246,audio/246_SN14_mid.wav,,238840,,76,audio-slider-response,14,
910,list3,,,,,,0.0-6.0-1.35,,,,,,,,,,239345,,77,html-keyboard-response,,
910,list3,,,,,,0.0-6.0-0.36,neutral,1465,,4116,control,5000,246,audio/246_CN8.wav,,243464,,78,audio-slider-response,8,
910,list3,,,,,,0.0-6.0-1.36,,,,,,,,,,243968,,79,html-keyboard-response,,
910,list3,,,,,,0.0-6.0-0.37,neutral,329,,5120,mid,5000,246,audio/246_SN1_mid.wav,,249089,,80,audio-slider-response,1,
910,list3,,,,,,0.0-6.0-1.37,,,,,,,,,,249592,,81,html-keyboard-response,,
910,list3,,,,,,0.0-6.0-0.38,neutral,9211,,2902,control,5000,723,audio/723_CN13.wav,,252497,,82,audio-slider-response,13,
910,list3,,,,,,0.0-6.0-1.38,,,,,,,,,,253001,,83,html-keyboard-response,,
910,list3,,,,,,0.0-6.0-0.39,neutral,1583,,5561,control,5000,246,audio/246_CN9.wav,,258561,,84,audio-slider-response,9,
910,list3,,,,,,0.0-6.0-1.39,,,,,,,,,,259065,,85,html-keyboard-response,,
910,list3,,,,,,0.0-6.0-0.40,neutral,3670,,6095,high,5000,246,audio/246_SN21_high.wav,,265165,,86,audio-slider-response,21,
910,list3,,,,,,0.0-6.0-1.40,,,,,,,,,,265671,,87,html-keyboard-response,,
910,list3,,,,,,0.0-6.0-0.41,neutral,9570,,4870,control,5000,723,audio/723_CN7.wav,,270541,,88,audio-slider-response,7,
910,list3,,,,,,0.0-6.0-1.41,,,,,,,,,,271052,,89,html-keyboard-response,,
910,list3,,,,,,0.0-6.0-0.42,neutral,10000,,3884,control,5000,723,audio/723_CN3.wav,,274940,,90,audio-slider-response,3,
910,list3,,,,,,0.0-6.0-1.42,,,,,,,,,,275452,,91,html-keyboard-response,,
910,list3,,,,,,0.0-6.0-0.43,neutral,8994,,4447,low,5000,723,audio/723_SN5_low.wav,,279901,,92,audio-slider-response,5,
910,list3,,,,,,0.0-6.0-1.43,,,,,,,,,,280410,,93,html-keyboard-response,,
910,list3,,,,,,0.0-6.0-0.44,neutral,8919,,3855,high,5000,723,audio/723_SN2_high.wav,,284267,,94,audio-slider-response,2,
910,list3,,,,,,0.0-6.0-1.44,,,,,,,,,,284769,,95,html-keyboard-response,,
910,list3,,,,,,0.0-6.0-0.45,neutral,3628,,4702,control,5000,246,audio/246_CN13.wav,,289475,,96,audio-slider-response,13,
910,list3,,,,,,0.0-6.0-1.45,,,,,,,,,,289976,,97,html-keyboard-response,,
910,list3,,,,,,0.0-6.0-0.46,neutral,9635,,3907,control,5000,723,audio/723_CN2.wav,,293885,,98,audio-slider-response,2,
910,list3,,,,,,0.0-6.0-1.46,,,,,,,,,,294394,,99,html-keyboard-response,,
910,list3,,,,,,0.0-6.0-0.47,neutral,1496,,3738,control,5000,246,audio/246_CN19.wav,,298137,,100,audio-slider-response,19,
910,list3,,,,,,0.0-6.0-1.47,,,,,,,,,,298643,,101,html-keyboard-response,,
910,list3,,,,,,0.0-6.0-0.48,neutral,9939,,3396,control,5000,723,audio/723_CN4.wav,,302042,,102,audio-slider-response,4,
910,list3,,,,,,0.0-6.0-1.48,,,,,,,,,,302544,,103,html-keyboard-response,,
910,list3,,,,,,0.0-6.0-0.49,neutral,2916,,3733,high,5000,246,audio/246_SN16_high.wav,,306281,,104,audio-slider-response,16,
910,list3,,,,,,0.0-6.0-1.49,,,,,,,,,,306788,,105,html-keyboard-response,,
910,list3,,,,,,0.0-6.0-0.50,neutral,10000,,3373,control,5000,723,audio/723_CN21.wav,,310163,,106,audio-slider-response,21,
910,list3,,,,,,0.0-6.0-1.50,,,,,,,,,,310665,,107,html-keyboard-response,,
910,list3,,,,,,0.0-6.0-0.51,neutral,2676,,4481,control,5000,246,audio/246_CN5.wav,,315147,,108,audio-slider-response,5,
910,list3,,,,,,0.0-6.0-1.51,,,,,,,,,,315650,,109,html-keyboard-response,,
910,list3,,,,,,0.0-6.0-0.52,neutral,1513,,6536,control,5000,246,audio/246_CN17.wav,,322189,,110,audio-slider-response,17,
910,list3,,,,,,0.0-6.0-1.52,,,,,,,,,,322695,,111,html-keyboard-response,,
910,list3,,,,,,0.0-6.0-0.53,neutral,9406,,5149,mid,5000,723,audio/723_SN8_mid.wav,,327848,,112,audio-slider-response,8,
910,list3,,,,,,0.0-6.0-1.53,,,,,,,,,,328353,,113,html-keyboard-response,,
910,list3,,,,,,0.0-6.0-0.54,neutral,392,,8707,high,5000,246,audio/246_SN4_high.wav,,337062,,114,audio-slider-response,4,
910,list3,,,,,,0.0-6.0-1.54,,,,,,,,,,337570,,115,html-keyboard-response,,
910,list3,,,,,,0.0-6.0-0.55,neutral,9840,,5660,low,5000,723,audio/723_SN9_low.wav,,343226,,116,audio-slider-response,9,
910,list3,,,,,,0.0-6.0-1.55,,,,,,,,,,343729,,117,html-keyboard-response,,
910,list3,,,,,,0.0-6.0-0.56,neutral,10000,,4383,high,5000,723,audio/723_SN10_high.wav,,348108,,118,audio-slider-response,10,
910,list3,,,,,,0.0-6.0-1.56,,,,,,,,,,348618,,119,html-keyboard-response,,
910,list3,,,,,,0.0-6.0-0.57,neutral,638,,4940,high,5000,246,audio/246_SN2_high.wav,,353562,,120,audio-slider-response,2,
910,list3,,,,,,0.0-6.0-1.57,,,,,,,,,,354063,,121,html-keyboard-response,,
910,list3,,,,,,0.0-6.0-0.58,neutral,1381,,8400,mid,5000,246,audio/246_SN13_mid.wav,,362463,,122,audio-slider-response,13,
910,list3,,,,,,0.0-6.0-1.58,,,,,,,,,,362968,,123,html-keyboard-response,,
910,list3,,,,,,0.0-6.0-0.59,neutral,10000,,3634,control,5000,723,audio/723_CN20.wav,,366604,,124,audio-slider-response,20,
910,list3,,,,,,0.0-6.0-1.59,,,,,,,,,,367110,,125,html-keyboard-response,,
910,list3,,,,,,0.0-6.0-0.60,neutral,10000,,2914,mid,5000,723,audio/723_SN3_mid.wav,,370023,,126,audio-slider-response,3,
910,list3,,,,,,0.0-6.0-1.60,,,,,,,,,,370528,,127,html-keyboard-response,,
910,list3,,,,,,0.0-6.0-0.61,neutral,7922,,4580,high,5000,723,audio/723_SN17_high.wav,,375108,,128,audio-slider-response,17,
910,list3,,,,,,0.0-6.0-1.61,,,,,,,,,,375612,,129,html-keyboard-response,,
910,list3,,,,,,0.0-6.0-0.62,neutral,5861,,5939,high,5000,723,audio/723_SN4_high.wav,,381553,,130,audio-slider-response,4,
910,list3,,,,,,0.0-6.0-1.62,,,,,,,,,,382061,,131,html-keyboard-response,,
910,list3,,,,,,0.0-6.0-0.63,neutral,2555,,4778,low,5000,246,audio/246_SN5_low.wav,,386842,,132,audio-slider-response,5,
910,list3,,,,,,0.0-6.0-1.63,,,,,,,,,,387344,,133,html-keyboard-response,,
910,list3,,,,,,0.0-6.0-0.64,neutral,1644,,4830,mid,5000,246,audio/246_SN3_mid.wav,,392174,,134,audio-slider-response,3,
910,list3,,,,,,0.0-6.0-1.64,,,,,,,,,,392683,,135,html-keyboard-response,,
910,list3,,,,,,0.0-6.0-0.65,neutral,1462,,4673,low,5000,246,audio/246_SN20_low.wav,,397360,,136,audio-slider-response,20,
910,list3,,,,,,0.0-6.0-1.65,,,,,,,,,,397868,,137,html-keyboard-response,,
910,list3,,,,,,0.0-6.0-0.66,neutral,8633,,4441,mid,5000,723,audio/723_SN1_mid.wav,,402309,,138,audio-slider-response,1,
910,list3,,,,,,0.0-6.0-1.66,,,,,,,,,,402818,,139,html-keyboard-response,,
910,list3,,,,,,0.0-6.0-0.67,neutral,3145,,5503,control,5000,246,audio/246_CN21.wav,,408328,,140,audio-slider-response,21,
910,list3,,,,,,0.0-6.0-1.67,,,,,,,,,,408834,,141,html-keyboard-response,,
910,list3,,,,,,0.0-6.0-0.68,neutral,10000,,3454,control,5000,723,audio/723_CN19.wav,,412288,,142,audio-slider-response,19,
910,list3,,,,,,0.0-6.0-1.68,,,,,,,,,,412792,,143,html-keyboard-response,,
910,list3,,,,,,0.0-6.0-0.69,neutral,10000,,4510,control,5000,723,audio/723_CN10.wav,,417305,,144,audio-slider-response,10,
910,list3,,,,,,0.0-6.0-1.69,,,,,,,,,,417809,,145,html-keyboard-response,,
910,list3,,,,,,0.0-6.0-0.70,neutral,7983,,4412,low,5000,723,audio/723_SN18_low.wav,,422224,,146,audio-slider-response,18,
910,list3,,,,,,0.0-6.0-1.70,,,,,,,,,,422731,,147,html-keyboard-response,,
910,list3,,,,,,0.0-6.0-0.71,neutral,493,,3727,low,5000,246,audio/246_SN15_low.wav,,426463,,148,audio-slider-response,15,
910,list3,,,,,,0.0-6.0-1.71,,,,,,,,,,426968,,149,html-keyboard-response,,
910,list3,,,,,,0.0-7.0,,0,,11699,,,,"<p><font size='3'>You have completed the listening trials. You will now complete a short questionnaire. During the questionnaire, you will see a series of statements alongside a scale. Click along the scale to indicate how much you agree or disagree with the statement. Upon completion of the questionnaire, you will be asked to fill out an optional demographic survey. <br><br>When you're ready to begin the questionnaire, click ‘Continue’.</font></p>",,438669,,150,html-button-response,,
910,list3,,NEGATIVE,,,,0.0-8.0-0.0,,,,,,5000,,The freedom that children are given should be determined by their age and maturity level and not by their sex.<br><br>,,458679,,151,html-slider-response,,
910,list3,,POSITIVE,,,,0.0-8.0-0.1,,8205,,10397,,5000,,A father’s major responsibility is to provide financially for his children.<br><br>,,469078,,152,html-slider-response,,
910,list3,,NEGATIVE,,,,0.0-8.0-0.2,,10000,,9999,,5000,,People can be both aggressive and nurturing regardless of sex.<br><br>,,479078,,153,html-slider-response,,
910,list3,,POSITIVE,,,,0.0-8.0-0.3,,8051,,10011,,5000,,Only some types of work are appropriate for both men and women.<br><br>,,489091,,154,html-slider-response,,
910,list3,,POSITIVE,,,,0.0-8.0-0.4,,5472,,11056,,5000,,Mothers should make most decisions about how children are brought up.<br><br>,,500149,,155,html-slider-response,,
910,list3,,POSITIVE,,,,0.0-8.0-0.5,,4147,,8413,,5000,,"For many important jobs, it is better to choose men instead of women.<br><br>",,508563,,156,html-slider-response,,
910,list3,,POSITIVE,,,,0.0-8.0-0.6,,6029,,9629,,5000,,Girls should be protected and watched over more than boys.<br><br>,,518194,,157,html-slider-response,,
910,list3,,NEGATIVE,,,,0.0-8.0-0.7,,5973,,11630,,5000,,We should stop thinking about whether people are male or female and focus on other characteristics.<br><br>,,529826,,158,html-slider-response,,
910,list3,,POSITIVE,,,,0.0-8.0-0.8,,6351,,8278,,5000,,Some types of work are just not appropriate for women.<br><br>,,538105,,159,html-slider-response,,
910,list3,,POSITIVE,,,,0.0-8.0-0.9,,4453,,6231,,5000,,Men are more sexual than women.<br><br>,,544338,,160,html-slider-response,,
910,list3,,POSITIVE,,,,0.0-8.0-0.10,,5819,,13127,,5000,,Mothers should work only if necessary.<br><br>,,557466,,161,html-slider-response,,
910,list3,,NEGATIVE,,,,0.0-8.0-0.11,,8749,,7502,,5000,,People should be treated the same regardless of their sex.<br><br>,,564970,,162,html-slider-response,,
910,list3,,NEGATIVE,,,,0.0-8.0-0.12,,0,,4419,,5000,,Tasks around the house should not be assigned by sex.<br><br>,,569391,,163,html-slider-response,,
910,list3,,,,,,0.0-9.0,,0,,10934,,,,"<p><font size='3'>You have completed the questionnaire. There will now be an optional survey. Please answer the following questions if you feel comfortable doing so. If you do not wish to answer a question, please leave it blank. <br><br>When you're ready to procede, click ‘Continue’.</font></p>",,580326,,164,html-button-response,,
910,list3,[],,,,,0.0-10.0,,"{'age': '50', 'race': 'Caucasian', 'P0_Q0': None, 'enjoy': 'Better than the average experiment', 'gender': 'Female', 'region': 'West - AK, CA, CO, HI, ID, MT, NV, OR, UT, WA, WY', 'correct': 'Yes', 'payment': 'The payment was fair', 'comments': '', 'language': 'English', 'education': 'Graduated college', 'political': 'Moderate'}",,58765,,,,,,639209,,165,survey,,
910,list3,,,,,,0.0-11.0,,0,,2515,,,,Thank you for your time! Please click 'Finish' and then wait a moment until you're directed back to Prolific.<br><br>,,641727,,166,html-button-response,,
913,list3,,,[],[],[],0.0-0.0,,,,,,,,,True,11434,False,0,preload,,
913,list3,,,,,,0.0-1.0,,0,,17895,,,,"<p><font size='3'>DESCRIPTION: You are invited to participate in a research study. Its general purpose is to understand how people perceive speech. We are interested in how people make use of varying properties of language to infer social information about a speaker. In this study, you will hear spoken sentences, and you will be asked to make simple decisions about the sentences you hear. Following this, you will be asked to complete a short questionnaire, where you will indicate on a sliding scale how much you agree or disagree with a series of statements. You will also be asked to complete an optional demographic survey. <br><br>TIME INVOLVEMENT: Your participation will take approximately 10 to 20 minutes. <br><br>RISKS AND BENEFITS: The foreseeable risks associated with this study are minimal. This judgment is based on a large body of experience with the same or similar procedures with people of similar ages, sex, origins, etc. Study data will be stored securely, in compliance with Stanford University standards, minimizing the risk of confidentiality breach. There are no known benefits to you for participating in this study, and we cannot and do not guarantee or promise that you will receive any benefits from this study. You will help us to understand how people perceive spoken language. <br><br>PAYMENT: You will be paid at the posted rate. <br><br>PARTICIPANT RIGHTS: If you have read this form and have decided to participate in this project, please understand your participation is voluntary and you have the right to withdraw your consent or discontinue participation at any time without penalty or loss of benefits to which you are otherwise entitled. The alternative is not to participate. You have the right to refuse to answer particular questions. The results of this research study may be presented at scientific or professional meetings or published in scientific journals. Your individual privacy will be maintained in all published and written data resulting from the study. In accordance with scientific norms, the data from this study may be used or shared with other researchers for future research (after removing personally identifying information) without additional consent from you. <br><br>CONTACT INFORMATION: If you have any questions, concerns or complaints about this research study, its procedures, risks and benefits, you should contact the Protocol Director Grace Brown at (616) 498-8188. If you are not satisfied with how this study is being conducted, or if you have any concerns, complaints, or general questions about the research or your rights as a participant, please contact the Stanford Institutional Review Board (IRB) to speak to someone independent of the research team at (650) 723-2480 or toll free at 1-866-680-2906. You can also write to the Stanford IRB, Stanford University, 3000 El Camino Real, Five Palo Alto Square, 4th Floor, Palo Alto, CA 94306 USA. <br><br>WAIVER OF DOCUMENTATION: If you agree to participate in this research, please click the 'Continue' button. </font></p>",,29332,,1,html-button-response,,
913,list3,,,,,,0.0-2.0,,0,,5030,,,,"<p><font size='3'>This study requires you to listen to audio clips. To ensure you can adequately hear the audio presented in this study, the next page will have an audio attention check. Please wear headphones, and be prepared to adjust the volume on your device if necessary. <br><br> When you are ready to begin the audio attention check, click 'Start'. </font></p>",,34363,,2,html-button-response,,
913,list3,,,,,,0.0-3.0,,2,correct,5771,,,,audio/gift.wav,,40228,,3,audio-button-response,,
913,list3,,,,,,0.0-4.0,,0,,1782,,,,<p>Correct! You are ready to begin the study.</p>,,42011,,4,html-button-response,,
913,list3,,,,,,0.0-5.0,,0,,4520,,,,"<p><font size='3'>In this experiment, you will listen to a series of sentences, produced by different speakers. While listening to each sentence, you will be prompted to rate the social characteristics of its speaker. To rate the social characteristics of a speaker, click along the scale that appears on your screen. You may click along this scale after the speaker stops talking. Try to respond as quickly as you can. If you do not respond within ten seconds, the experiment will advance automatically. There will be a progress bar at the top of the screen. When you're ready to hear the first speaker, click ‘Start’. </font></p>",,46531,,5,html-button-response,,
913,list3,,,,,,0.0-6.0-0.0,neutral,,,,control,5000,246,audio/246_CN18.wav,,56552,,6,audio-slider-response,18,
913,list3,,,,,,0.0-6.0-1.0,,,,,,,,,,57068,,7,html-keyboard-response,,
913,list3,,,,,,0.0-6.0-0.1,neutral,,,,control,5000,246,audio/246_CN4.wav,,67088,,8,audio-slider-response,4,
913,list3,,,,,,0.0-6.0-1.1,,,,,,,,,,67605,,9,html-keyboard-response,,
913,list3,,,,,,0.0-6.0-0.2,neutral,,,,low,5000,246,audio/246_SN18_low.wav,,77618,,10,audio-slider-response,18,
913,list3,,,,,,0.0-6.0-1.2,,,,,,,,,,78134,,11,html-keyboard-response,,
913,list3,,,,,,0.0-6.0-0.3,neutral,,,,control,5000,723,audio/723_CN16.wav,,88143,,12,audio-slider-response,16,
913,list3,,,,,,0.0-6.0-1.3,,,,,,,,,,88657,,13,html-keyboard-response,,
913,list3,,,,,,0.0-6.0-0.4,neutral,8666,,8781,high,5000,723,audio/723_SN10_high.wav,,97445,,14,audio-slider-response,10,
913,list3,,,,,,0.0-6.0-1.4,,,,,,,,,,97948,,15,html-keyboard-response,,
913,list3,,,,,,0.0-6.0-0.5,neutral,8184,,4251,control,5000,246,audio/246_CN20.wav,,102204,,16,audio-slider-response,20,
913,list3,,,,,,0.0-6.0-1.5,,,,,,,,,,102709,,17,html-keyboard-response,,
913,list3,,,,,,0.0-6.0-0.6,neutral,,,,control,5000,246,audio/246_CN5.wav,,112730,,18,audio-slider-response,5,
913,list3,,,,,,0.0-6.0-1.6,,,,,,,,,,113248,,19,html-keyboard-response,,
913,list3,,,,,,0.0-6.0-0.7,neutral,6351,,5061,low,5000,246,audio/246_SN20_low.wav,,118307,,20,audio-slider-response,20,
913,list3,,,,,,0.0-6.0-1.7,,,,,,,,,,118814,,21,html-keyboard-response,,
913,list3,,,,,,0.0-6.0-0.8,neutral,,,,control,5000,246,audio/246_CN3.wav,,128832,,22,audio-slider-response,3,
913,list3,,,,,,0.0-6.0-1.8,,,,,,,,,,129349,,23,html-keyboard-response,,
913,list3,,,,,,0.0-6.0-0.9,neutral,7398,,4851,high,5000,723,audio/723_SN17_high.wav,,134203,,24,audio-slider-response,17,
913,list3,,,,,,0.0-6.0-1.9,,,,,,,,,,134715,,25,html-keyboard-response,,
913,list3,,,,,,0.0-6.0-0.10,neutral,7068,,6709,mid,5000,246,audio/246_SN13_mid.wav,,141435,,26,audio-slider-response,13,
913,list3,,,,,,0.0-6.0-1.10,,,,,,,,,,141938,,27,html-keyboard-response,,
913,list3,,,,,,0.0-6.0-0.11,neutral,7219,,5669,high,5000,246,audio/246_SN10_high.wav,,147611,,28,audio-slider-response,10,
913,list3,,,,,,0.0-6.0-1.11,,,,,,,,,,148123,,29,html-keyboard-response,,
913,list3,,,,,,0.0-6.0-0.12,neutral,6144,,8549,control,5000,246,audio/246_CN21.wav,,156674,,30,audio-slider-response,21,
913,list3,,,,,,0.0-6.0-1.12,,,,,,,,,,157177,,31,html-keyboard-response,,
913,list3,,,,,,0.0-6.0-0.13,neutral,6613,,3501,low,5000,246,audio/246_SN9_low.wav,,160682,,32,audio-slider-response,9,
913,list3,,,,,,0.0-6.0-1.13,,,,,,,,,,161197,,33,html-keyboard-response,,
913,list3,,,,,,0.0-6.0-0.14,neutral,6585,,4029,mid,5000,246,audio/246_SN7_mid.wav,,165234,,34,audio-slider-response,7,
913,list3,,,,,,0.0-6.0-1.14,,,,,,,,,,165738,,35,html-keyboard-response,,
913,list3,,,,,,0.0-6.0-0.15,neutral,6475,,2691,control,5000,246,audio/246_CN10.wav,,168434,,36,audio-slider-response,10,
913,list3,,,,,,0.0-6.0-1.15,,,,,,,,,,168943,,37,html-keyboard-response,,
913,list3,,,,,,0.0-6.0-0.16,neutral,6599,,3061,low,5000,723,audio/723_SN18_low.wav,,172003,,38,audio-slider-response,18,
913,list3,,,,,,0.0-6.0-1.16,,,,,,,,,,172514,,39,html-keyboard-response,,
913,list3,,,,,,0.0-6.0-0.17,neutral,7150,,3067,high,5000,246,audio/246_SN2_high.wav,,175587,,40,audio-slider-response,2,
913,list3,,,,,,0.0-6.0-1.17,,,,,,,,,,176098,,41,html-keyboard-response,,
913,list3,,,,,,0.0-6.0-0.18,neutral,6365,,4451,control,5000,723,audio/723_CN19.wav,,180555,,42,audio-slider-response,19,
913,list3,,,,,,0.0-6.0-1.18,,,,,,,,,,181060,,43,html-keyboard-response,,
913,list3,,,,,,0.0-6.0-0.19,neutral,5992,,2811,control,5000,246,audio/246_CN2.wav,,183867,,44,audio-slider-response,2,
913,list3,,,,,,0.0-6.0-1.19,,,,,,,,,,184371,,45,html-keyboard-response,,
913,list3,,,,,,0.0-6.0-0.20,neutral,6268,,2560,control,5000,246,audio/246_CN1.wav,,186931,,46,audio-slider-response,1,
913,list3,,,,,,0.0-6.0-1.20,,,,,,,,,,187443,,47,html-keyboard-response,,
913,list3,,,,,,0.0-6.0-0.21,neutral,3718,,2469,high,5000,723,audio/723_SN4_high.wav,,189907,,48,audio-slider-response,4,
913,list3,,,,,,0.0-6.0-1.21,,,,,,,,,,190410,,49,html-keyboard-response,,
913,list3,,,,,,0.0-6.0-0.22,neutral,6475,,2912,low,5000,723,audio/723_SN19_low.wav,,193323,,50,audio-slider-response,19,
913,list3,,,,,,0.0-6.0-1.22,,,,,,,,,,193830,,51,html-keyboard-response,,
913,list3,,,,,,0.0-6.0-0.23,neutral,7922,,2389,control,5000,723,audio/723_CN1.wav,,196218,,52,audio-slider-response,1,
913,list3,,,,,,0.0-6.0-1.23,,,,,,,,,,196729,,53,html-keyboard-response,,
913,list3,,,,,,0.0-6.0-0.24,neutral,7771,,2352,control,5000,723,audio/723_CN20.wav,,199084,,54,audio-slider-response,20,
913,list3,,,,,,0.0-6.0-1.24,,,,,,,,,,199595,,55,html-keyboard-response,,
913,list3,,,,,,0.0-6.0-0.25,neutral,7343,,2219,control,5000,723,audio/723_CN13.wav,,201818,,56,audio-slider-response,13,
913,list3,,,,,,0.0-6.0-1.25,,,,,,,,,,202333,,57,html-keyboard-response,,
913,list3,,,,,,0.0-6.0-0.26,neutral,2574,,2981,mid,5000,723,audio/723_SN1_mid.wav,,205307,,58,audio-slider-response,1,
913,list3,,,,,,0.0-6.0-1.26,,,,,,,,,,205813,,59,html-keyboard-response,,
913,list3,,,,,,0.0-6.0-0.27,neutral,6957,,2011,control,5000,723,audio/723_CN14.wav,,207818,,60,audio-slider-response,14,
913,list3,,,,,,0.0-6.0-1.27,,,,,,,,,,208334,,61,html-keyboard-response,,
913,list3,,,,,,0.0-6.0-0.28,neutral,,,,control,5000,246,audio/246_CN17.wav,,218343,,62,audio-slider-response,17,
913,list3,,,,,,0.0-6.0-1.28,,,,,,,,,,218846,,63,html-keyboard-response,,
913,list3,,,,,,0.0-6.0-0.29,neutral,,,,control,5000,723,audio/723_CN15.wav,,228859,,64,audio-slider-response,15,
913,list3,,,,,,0.0-6.0-1.29,,,,,,,,,,229362,,65,html-keyboard-response,,
913,list3,,,,,,0.0-6.0-0.30,neutral,6420,,3408,control,5000,723,audio/723_CN10.wav,,232772,,66,audio-slider-response,10,
913,list3,,,,,,0.0-6.0-1.30,,,,,,,,,,233281,,67,html-keyboard-response,,
913,list3,,,,,,0.0-6.0-0.31,neutral,6172,,5549,low,5000,246,audio/246_SN19_low.wav,,238833,,68,audio-slider-response,19,
913,list3,,,,,,0.0-6.0-1.31,,,,,,,,,,239345,,69,html-keyboard-response,,
913,list3,,,,,,0.0-6.0-0.32,neutral,,,,mid,5000,246,audio/246_SN8_mid.wav,,249361,,70,audio-slider-response,8,
913,list3,,,,,,0.0-6.0-1.32,,,,,,,,,,249864,,71,html-keyboard-response,,
913,list3,,,,,,0.0-6.0-0.33,neutral,8832,,3200,mid,5000,723,audio/723_SN3_mid.wav,,253058,,72,audio-slider-response,3,
913,list3,,,,,,0.0-6.0-1.33,,,,,,,,,,253568,,73,html-keyboard-response,,
913,list3,,,,,,0.0-6.0-0.34,neutral,7261,,5360,control,5000,246,audio/246_CN9.wav,,258931,,74,audio-slider-response,9,
913,list3,,,,,,0.0-6.0-1.34,,,,,,,,,,259433,,75,html-keyboard-response,,
913,list3,,,,,,0.0-6.0-0.35,neutral,7867,,5040,control,5000,246,audio/246_CN8.wav,,264475,,76,audio-slider-response,8,
913,list3,,,,,,0.0-6.0-1.35,,,,,,,,,,264988,,77,html-keyboard-response,,
913,list3,,,,,,0.0-6.0-0.36,neutral,6571,,5571,mid,5000,723,audio/723_SN7_mid.wav,,270563,,78,audio-slider-response,7,
913,list3,,,,,,0.0-6.0-1.36,,,,,,,,,,271064,,79,html-keyboard-response,,
913,list3,,,,,,0.0-6.0-0.37,neutral,7578,,3200,control,5000,723,audio/723_CN8.wav,,274267,,80,audio-slider-response,8,
913,list3,,,,,,0.0-6.0-1.37,,,,,,,,,,274769,,81,html-keyboard-response,,
913,list3,,,,,,0.0-6.0-0.38,neutral,7646,,3792,control,5000,723,audio/723_CN17.wav,,278563,,82,audio-slider-response,17,
913,list3,,,,,,0.0-6.0-1.38,,,,,,,,,,279065,,83,html-keyboard-response,,
913,list3,,,,,,0.0-6.0-0.39,neutral,7453,,6869,mid,5000,246,audio/246_SN14_mid.wav,,285930,,84,audio-slider-response,14,
913,list3,,,,,,0.0-6.0-1.39,,,,,,,,,,286439,,85,html-keyboard-response,,
913,list3,,,,,,0.0-6.0-0.40,neutral,6875,,3608,mid,5000,246,audio/246_SN1_mid.wav,,290051,,86,audio-slider-response,1,
913,list3,,,,,,0.0-6.0-1.40,,,,,,,,,,290558,,87,html-keyboard-response,,
913,list3,,,,,,0.0-6.0-0.41,neutral,7426,,3379,control,5000,246,audio/246_CN14.wav,,293938,,88,audio-slider-response,14,
913,list3,,,,,,0.0-6.0-1.41,,,,,,,,,,294440,,89,html-keyboard-response,,
913,list3,,,,,,0.0-6.0-0.42,neutral,7123,,2419,control,5000,246,audio/246_CN15.wav,,296867,,90,audio-slider-response,15,
913,list3,,,,,,0.0-6.0-1.42,,,,,,,,,,297380,,91,html-keyboard-response,,
913,list3,,,,,,0.0-6.0-0.43,neutral,7164,,3261,control,5000,723,audio/723_CN4.wav,,300643,,92,audio-slider-response,4,
913,list3,,,,,,0.0-6.0-1.43,,,,,,,,,,301153,,93,html-keyboard-response,,
913,list3,,,,,,0.0-6.0-0.44,neutral,6571,,2611,mid,5000,723,audio/723_SN14_mid.wav,,303762,,94,audio-slider-response,14,
913,list3,,,,,,0.0-6.0-1.44,,,,,,,,,,304268,,95,html-keyboard-response,,
913,list3,,,,,,0.0-6.0-0.45,neutral,6241,,3429,low,5000,246,audio/246_SN15_low.wav,,307698,,96,audio-slider-response,15,
913,list3,,,,,,0.0-6.0-1.45,,,,,,,,,,308209,,97,html-keyboard-response,,
913,list3,,,,,,0.0-6.0-0.46,neutral,6819,,5221,mid,5000,246,audio/246_SN3_mid.wav,,313434,,98,audio-slider-response,3,
913,list3,,,,,,0.0-6.0-1.46,,,,,,,,,,313942,,99,html-keyboard-response,,
913,list3,,,,,,0.0-6.0-0.47,neutral,6737,,3629,low,5000,723,audio/723_SN9_low.wav,,317571,,100,audio-slider-response,9,
913,list3,,,,,,0.0-6.0-1.47,,,,,,,,,,318080,,101,html-keyboard-response,,
913,list3,,,,,,0.0-6.0-0.48,neutral,6558,,4019,high,5000,246,audio/246_SN21_high.wav,,322098,,102,audio-slider-response,21,
913,list3,,,,,,0.0-6.0-1.48,,,,,,,,,,322606,,103,html-keyboard-response,,
913,list3,,,,,,0.0-6.0-0.49,neutral,6475,,2661,high,5000,723,audio/723_SN16_high.wav,,325267,,104,audio-slider-response,16,
913,list3,,,,,,0.0-6.0-1.49,,,,,,,,,,325773,,105,html-keyboard-response,,
913,list3,,,,,,0.0-6.0-0.50,neutral,6819,,5131,control,5000,246,audio/246_CN7.wav,,330899,,106,audio-slider-response,7,
913,list3,,,,,,0.0-6.0-1.50,,,,,,,,,,331409,,107,html-keyboard-response,,
913,list3,,,,,,0.0-6.0-0.51,neutral,6406,,3421,low,5000,723,audio/723_SN20_low.wav,,334834,,108,audio-slider-response,20,
913,list3,,,,,,0.0-6.0-1.51,,,,,,,,,,335350,,109,html-keyboard-response,,
913,list3,,,,,,0.0-6.0-0.52,neutral,7453,,3499,control,5000,723,audio/723_CN2.wav,,338851,,110,audio-slider-response,2,
913,list3,,,,,,0.0-6.0-1.52,,,,,,,,,,339357,,111,html-keyboard-response,,
913,list3,,,,,,0.0-6.0-0.53,neutral,6819,,6229,high,5000,246,audio/246_SN17_high.wav,,345595,,112,audio-slider-response,17,
913,list3,,,,,,0.0-6.0-1.53,,,,,,,,,,346109,,113,html-keyboard-response,,
913,list3,,,,,,0.0-6.0-0.54,neutral,6227,,2640,control,5000,723,audio/723_CN21.wav,,348747,,114,audio-slider-response,21,
913,list3,,,,,,0.0-6.0-1.54,,,,,,,,,,349257,,115,html-keyboard-response,,
913,list3,,,,,,0.0-6.0-0.55,neutral,6571,,1949,low,5000,723,audio/723_SN15_low.wav,,351211,,116,audio-slider-response,15,
913,list3,,,,,,0.0-6.0-1.55,,,,,,,,,,351727,,117,html-keyboard-response,,
913,list3,,,,,,0.0-6.0-0.56,neutral,3980,,2141,mid,5000,723,audio/723_SN13_mid.wav,,353875,,118,audio-slider-response,13,
913,list3,,,,,,0.0-6.0-1.56,,,,,,,,,,354377,,119,html-keyboard-response,,
913,list3,,,,,,0.0-6.0-0.57,neutral,6433,,4421,control,5000,723,audio/723_CN7.wav,,358802,,120,audio-slider-response,7,
913,list3,,,,,,0.0-6.0-1.57,,,,,,,,,,359308,,121,html-keyboard-response,,
913,list3,,,,,,0.0-6.0-0.58,neutral,6544,,3339,low,5000,723,audio/723_SN5_low.wav,,362650,,122,audio-slider-response,5,
913,list3,,,,,,0.0-6.0-1.58,,,,,,,,,,363160,,123,html-keyboard-response,,
913,list3,,,,,,0.0-6.0-0.59,neutral,7040,,2269,control,5000,246,audio/246_CN16.wav,,365434,,124,audio-slider-response,16,
913,list3,,,,,,0.0-6.0-1.59,,,,,,,,,,365937,,125,html-keyboard-response,,
913,list3,,,,,,0.0-6.0-0.60,neutral,6254,,2531,control,5000,723,audio/723_CN9.wav,,368474,,126,audio-slider-response,9,
913,list3,,,,,,0.0-6.0-1.60,,,,,,,,,,368986,,127,html-keyboard-response,,
913,list3,,,,,,0.0-6.0-0.61,neutral,6792,,3320,high,5000,246,audio/246_SN4_high.wav,,372307,,128,audio-slider-response,4,
913,list3,,,,,,0.0-6.0-1.61,,,,,,,,,,372811,,129,html-keyboard-response,,
913,list3,,,,,,0.0-6.0-0.62,neutral,2588,,2920,high,5000,246,audio/246_SN16_high.wav,,375733,,130,audio-slider-response,16,
913,list3,,,,,,0.0-6.0-1.62,,,,,,,,,,376246,,131,html-keyboard-response,,
913,list3,,,,,,0.0-6.0-0.63,neutral,6668,,2600,high,5000,723,audio/723_SN2_high.wav,,378851,,132,audio-slider-response,2,
913,list3,,,,,,0.0-6.0-1.63,,,,,,,,,,379366,,133,html-keyboard-response,,
913,list3,,,,,,0.0-6.0-0.64,neutral,6943,,2920,control,5000,246,audio/246_CN13.wav,,382291,,134,audio-slider-response,13,
913,list3,,,,,,0.0-6.0-1.64,,,,,,,,,,382798,,135,html-keyboard-response,,
913,list3,,,,,,0.0-6.0-0.65,neutral,6544,,3280,low,5000,246,audio/246_SN5_low.wav,,386082,,136,audio-slider-response,5,
913,list3,,,,,,0.0-6.0-1.65,,,,,,,,,,386594,,137,html-keyboard-response,,
913,list3,,,,,,0.0-6.0-0.66,neutral,6682,,2109,control,5000,723,audio/723_CN3.wav,,388706,,138,audio-slider-response,3,
913,list3,,,,,,0.0-6.0-1.66,,,,,,,,,,389222,,139,html-keyboard-response,,
913,list3,,,,,,0.0-6.0-0.67,neutral,6833,,3461,mid,5000,723,audio/723_SN8_mid.wav,,392682,,140,audio-slider-response,8,
913,list3,,,,,,0.0-6.0-1.67,,,,,,,,,,393190,,141,html-keyboard-response,,
913,list3,,,,,,0.0-6.0-0.68,neutral,3015,,3309,control,5000,723,audio/723_CN5.wav,,396498,,142,audio-slider-response,5,
913,list3,,,,,,0.0-6.0-1.68,,,,,,,,,,397009,,143,html-keyboard-response,,
913,list3,,,,,,0.0-6.0-0.69,neutral,6296,,3211,control,5000,246,audio/246_CN19.wav,,400218,,144,audio-slider-response,19,
913,list3,,,,,,0.0-6.0-1.69,,,,,,,,,,400725,,145,html-keyboard-response,,
913,list3,,,,,,0.0-6.0-0.70,neutral,6213,,2301,high,5000,723,audio/723_SN21_high.wav,,403027,,146,audio-slider-response,21,
913,list3,,,,,,0.0-6.0-1.70,,,,,,,,,,403542,,147,html-keyboard-response,,
913,list3,,,,,,0.0-6.0-0.71,neutral,6819,,3080,control,5000,723,audio/723_CN18.wav,,406620,,148,audio-slider-response,18,
913,list3,,,,,,0.0-6.0-1.71,,,,,,,,,,407129,,149,html-keyboard-response,,
913,list3,,,,,,0.0-7.0,,0,,4047,,,,"<p><font size='3'>You have completed the listening trials. You will now complete a short questionnaire. During the questionnaire, you will see a series of statements alongside a scale. Click along the scale to indicate how much you agree or disagree with the statement. Upon completion of the questionnaire, you will be asked to fill out an optional demographic survey. <br><br>When you're ready to begin the questionnaire, click ‘Continue’.</font></p>",,411179,,150,html-button-response,,
913,list3,,POSITIVE,,,,0.0-8.0-0.0,,9535,,4022,,5000,,Men are more sexual than women.<br><br>,,415202,,151,html-slider-response,,
913,list3,,NEGATIVE,,,,0.0-8.0-0.1,,8763,,2264,,5000,,People can be both aggressive and nurturing regardless of sex.<br><br>,,417467,,152,html-slider-response,,
913,list3,,NEGATIVE,,,,0.0-8.0-0.2,,7440,,4686,,5000,,People should be treated the same regardless of their sex.<br><br>,,422155,,153,html-slider-response,,
913,list3,,POSITIVE,,,,0.0-8.0-0.3,,5841,,2631,,5000,,Only some types of work are appropriate for both men and women.<br><br>,,424787,,154,html-slider-response,,
913,list3,,POSITIVE,,,,0.0-8.0-0.4,,6199,,2695,,5000,,"For many important jobs, it is better to choose men instead of women.<br><br>",,427483,,155,html-slider-response,,
913,list3,,NEGATIVE,,,,0.0-8.0-0.5,,6296,,2247,,5000,,The freedom that children are given should be determined by their age and maturity level and not by their sex.<br><br>,,429731,,156,html-slider-response,,
913,list3,,POSITIVE,,,,0.0-8.0-0.6,,5937,,3455,,5000,,Mothers should work only if necessary.<br><br>,,433187,,157,html-slider-response,,
913,list3,,POSITIVE,,,,0.0-8.0-0.7,,6902,,2814,,5000,,Girls should be protected and watched over more than boys.<br><br>,,436003,,158,html-slider-response,,
913,list3,,POSITIVE,,,,0.0-8.0-0.8,,3470,,1815,,5000,,Some types of work are just not appropriate for women.<br><br>,,437819,,159,html-slider-response,,
913,list3,,POSITIVE,,,,0.0-8.0-0.9,,6447,,2329,,5000,,A father’s major responsibility is to provide financially for his children.<br><br>,,440149,,160,html-slider-response,,
913,list3,,NEGATIVE,,,,0.0-8.0-0.10,,3429,,2277,,5000,,We should stop thinking about whether people are male or female and focus on other characteristics.<br><br>,,442427,,161,html-slider-response,,
913,list3,,NEGATIVE,,,,0.0-8.0-0.11,,6957,,2182,,5000,,Tasks around the house should not be assigned by sex.<br><br>,,444610,,162,html-slider-response,,
913,list3,,POSITIVE,,,,0.0-8.0-0.12,,7963,,1959,,5000,,Mothers should make most decisions about how children are brought up.<br><br>,,446570,,163,html-slider-response,,
913,list3,,,,,,0.0-9.0,,0,,8552,,,,"<p><font size='3'>You have completed the questionnaire. There will now be an optional survey. Please answer the following questions if you feel comfortable doing so. If you do not wish to answer a question, please leave it blank. <br><br>When you're ready to procede, click ‘Continue’.</font></p>",,455123,,164,html-button-response,,
913,list3,[],,,,,0.0-10.0,,"{'age': '43', 'race': 'WHITE', 'P0_Q0': None, 'enjoy': 'Better than the average experiment', 'gender': 'MALE', 'region': 'Midwest - IA, IL, IN, KS, MI, MN, MO, ND, NE, OH, SD, WI', 'correct': 'Yes', 'payment': 'The payment was fair', 'comments': '', 'language': 'English', 'education': 'Graduated college', 'political': 'Very Conservative'}",,107204,,,,,,562409,,165,survey,,
913,list3,,,,,,0.0-11.0,,0,,5490,,,,Thank you for your time! Please click 'Finish' and then wait a moment until you're directed back to Prolific.<br><br>,,567901,,166,html-button-response,,
919,list3,,,[],[],[],0.0-0.0,,,,,,,,,True,2482,False,0,preload,,
919,list3,,,,,,0.0-1.0,,0,,35950,,,,"<p><font size='3'>DESCRIPTION: You are invited to participate in a research study. Its general purpose is to understand how people perceive speech. We are interested in how people make use of varying properties of language to infer social information about a speaker. In this study, you will hear spoken sentences, and you will be asked to make simple decisions about the sentences you hear. Following this, you will be asked to complete a short questionnaire, where you will indicate on a sliding scale how much you agree or disagree with a series of statements. You will also be asked to complete an optional demographic survey. <br><br>TIME INVOLVEMENT: Your participation will take approximately 10 to 20 minutes. <br><br>RISKS AND BENEFITS: The foreseeable risks associated with this study are minimal. This judgment is based on a large body of experience with the same or similar procedures with people of similar ages, sex, origins, etc. Study data will be stored securely, in compliance with Stanford University standards, minimizing the risk of confidentiality breach. There are no known benefits to you for participating in this study, and we cannot and do not guarantee or promise that you will receive any benefits from this study. You will help us to understand how people perceive spoken language. <br><br>PAYMENT: You will be paid at the posted rate. <br><br>PARTICIPANT RIGHTS: If you have read this form and have decided to participate in this project, please understand your participation is voluntary and you have the right to withdraw your consent or discontinue participation at any time without penalty or loss of benefits to which you are otherwise entitled. The alternative is not to participate. You have the right to refuse to answer particular questions. The results of this research study may be presented at scientific or professional meetings or published in scientific journals. Your individual privacy will be maintained in all published and written data resulting from the study. In accordance with scientific norms, the data from this study may be used or shared with other researchers for future research (after removing personally identifying information) without additional consent from you. <br><br>CONTACT INFORMATION: If you have any questions, concerns or complaints about this research study, its procedures, risks and benefits, you should contact the Protocol Director Grace Brown at (616) 498-8188. If you are not satisfied with how this study is being conducted, or if you have any concerns, complaints, or general questions about the research or your rights as a participant, please contact the Stanford Institutional Review Board (IRB) to speak to someone independent of the research team at (650) 723-2480 or toll free at 1-866-680-2906. You can also write to the Stanford IRB, Stanford University, 3000 El Camino Real, Five Palo Alto Square, 4th Floor, Palo Alto, CA 94306 USA. <br><br>WAIVER OF DOCUMENTATION: If you agree to participate in this research, please click the 'Continue' button. </font></p>",,38437,,1,html-button-response,,
919,list3,,,,,,0.0-2.0,,,,,,,,"<p><font size='3'>This study requires you to listen to audio clips. To ensure you can adequately hear the audio presented in this study, the next page will have an audio attention check. Please wear headphones, and be prepared to adjust the volume on your device if necessary. <br><br> When you are ready to begin the audio attention check, click 'Start'. </font></p>",,48451,,2,html-button-response,,
919,list3,,,,,,0.0-3.0,,2,correct,6651,,,,audio/gift.wav,,55963,,3,audio-button-response,,
919,list3,,,,,,0.0-4.0,,0,,1280,,,,<p>Correct! You are ready to begin the study.</p>,,57246,,4,html-button-response,,
919,list3,,,,,,0.0-5.0,,0,,95503,,,,"<p><font size='3'>In this experiment, you will listen to a series of sentences, produced by different speakers. While listening to each sentence, you will be prompted to rate the social characteristics of its speaker. To rate the social characteristics of a speaker, click along the scale that appears on your screen. You may click along this scale after the speaker stops talking. Try to respond as quickly as you can. If you do not respond within ten seconds, the experiment will advance automatically. There will be a progress bar at the top of the screen. When you're ready to hear the first speaker, click ‘Start’. </font></p>",,152751,,5,html-button-response,,
919,list3,,,,,,0.0-6.0-0.0,neutral,,,,mid,5000,723,audio/723_SN7_mid.wav,,162764,,6,audio-slider-response,7,
919,list3,,,,,,0.0-6.0-1.0,,,,,,,,,,163278,,7,html-keyboard-response,,
919,list3,,,,,,0.0-6.0-0.1,neutral,,,,high,5000,246,audio/246_SN16_high.wav,,173289,,8,audio-slider-response,16,
919,list3,,,,,,0.0-6.0-1.1,,,,,,,,,,173798,,9,html-keyboard-response,,
919,list3,,,,,,0.0-6.0-0.2,neutral,,,,control,5000,723,audio/723_CN18.wav,,183818,,10,audio-slider-response,18,
919,list3,,,,,,0.0-6.0-1.2,,,,,,,,,,184328,,11,html-keyboard-response,,
919,list3,,,,,,0.0-6.0-0.3,neutral,,,,control,5000,246,audio/246_CN14.wav,,194335,,12,audio-slider-response,14,
919,list3,,,,,,0.0-6.0-1.3,,,,,,,,,,194847,,13,html-keyboard-response,,
919,list3,,,,,,0.0-6.0-0.4,neutral,7402,,6731,high,5000,723,audio/723_SN21_high.wav,,201577,,14,audio-slider-response,21,
919,list3,,,,,,0.0-6.0-1.4,,,,,,,,,,202088,,15,html-keyboard-response,,
919,list3,,,,,,0.0-6.0-0.5,neutral,,,,control,5000,723,audio/723_CN7.wav,,212098,,16,audio-slider-response,7,
919,list3,,,,,,0.0-6.0-1.5,,,,,,,,,,212608,,17,html-keyboard-response,,
919,list3,,,,,,0.0-6.0-0.6,neutral,7526,,9461,mid,5000,723,audio/723_SN8_mid.wav,,222071,,18,audio-slider-response,8,
919,list3,,,,,,0.0-6.0-1.6,,,,,,,,,,222577,,19,html-keyboard-response,,
919,list3,,,,,,0.0-6.0-0.7,neutral,6946,,4411,control,5000,246,audio/246_CN18.wav,,226985,,20,audio-slider-response,18,
919,list3,,,,,,0.0-6.0-1.7,,,,,,,,,,227497,,21,html-keyboard-response,,
919,list3,,,,,,0.0-6.0-0.8,neutral,7816,,4091,mid,5000,723,audio/723_SN3_mid.wav,,231598,,22,audio-slider-response,3,
919,list3,,,,,,0.0-6.0-1.8,,,,,,,,,,232105,,23,html-keyboard-response,,
919,list3,,,,,,0.0-6.0-0.9,neutral,7340,,3171,high,5000,723,audio/723_SN17_high.wav,,235269,,24,audio-slider-response,17,
919,list3,,,,,,0.0-6.0-1.9,,,,,,,,,,235774,,25,html-keyboard-response,,
919,list3,,,,,,0.0-6.0-0.10,neutral,7008,,6291,control,5000,246,audio/246_CN2.wav,,242061,,26,audio-slider-response,2,
919,list3,,,,,,0.0-6.0-1.10,,,,,,,,,,242578,,27,html-keyboard-response,,
919,list3,,,,,,0.0-6.0-0.11,neutral,7422,,4579,control,5000,246,audio/246_CN1.wav,,247164,,28,audio-slider-response,1,
919,list3,,,,,,0.0-6.0-1.11,,,,,,,,,,247668,,29,html-keyboard-response,,
919,list3,,,,,,0.0-6.0-0.12,neutral,7008,,5669,mid,5000,723,audio/723_SN13_mid.wav,,253346,,30,audio-slider-response,13,
919,list3,,,,,,0.0-6.0-1.12,,,,,,,,,,253854,,31,html-keyboard-response,,
919,list3,,,,,,0.0-6.0-0.13,neutral,8043,,6069,control,5000,723,audio/723_CN20.wav,,259927,,32,audio-slider-response,20,
919,list3,,,,,,0.0-6.0-1.13,,,,,,,,,,260437,,33,html-keyboard-response,,
919,list3,,,,,,0.0-6.0-0.14,neutral,6863,,4888,mid,5000,723,audio/723_SN14_mid.wav,,265319,,34,audio-slider-response,14,
919,list3,,,,,,0.0-6.0-1.14,,,,,,,,,,265838,,35,html-keyboard-response,,
919,list3,,,,,,0.0-6.0-0.15,neutral,5911,,9392,control,5000,246,audio/246_CN21.wav,,275234,,36,audio-slider-response,21,
919,list3,,,,,,0.0-6.0-1.15,,,,,,,,,,275739,,37,html-keyboard-response,,
919,list3,,,,,,0.0-6.0-0.16,neutral,4358,,6840,mid,5000,246,audio/246_SN3_mid.wav,,282579,,38,audio-slider-response,3,
919,list3,,,,,,0.0-6.0-1.16,,,,,,,,,,283082,,39,html-keyboard-response,,
919,list3,,,,,,0.0-6.0-0.17,neutral,5828,,3421,high,5000,246,audio/246_SN2_high.wav,,286501,,40,audio-slider-response,2,
919,list3,,,,,,0.0-6.0-1.17,,,,,,,,,,287010,,41,html-keyboard-response,,
919,list3,,,,,,0.0-6.0-0.18,neutral,5621,,9720,high,5000,246,audio/246_SN17_high.wav,,296734,,42,audio-slider-response,17,
919,list3,,,,,,0.0-6.0-1.18,,,,,,,,,,297249,,43,html-keyboard-response,,
919,list3,,,,,,0.0-6.0-0.19,neutral,5994,,5821,low,5000,723,audio/723_SN19_low.wav,,303083,,44,audio-slider-response,19,
919,list3,,,,,,0.0-6.0-1.19,,,,,,,,,,303587,,45,html-keyboard-response,,
919,list3,,,,,,0.0-6.0-0.20,neutral,8209,,3800,control,5000,246,audio/246_CN9.wav,,307393,,46,audio-slider-response,9,
919,list3,,,,,,0.0-6.0-1.20,,,,,,,,,,307895,,47,html-keyboard-response,,
919,list3,,,,,,0.0-6.0-0.21,neutral,6408,,9469,control,5000,723,audio/723_CN15.wav,,317366,,48,audio-slider-response,15,
919,list3,,,,,,0.0-6.0-1.21,,,,,,,,,,317876,,49,html-keyboard-response,,
919,list3,,,,,,0.0-6.0-0.22,neutral,,,,low,5000,723,audio/723_SN9_low.wav,,327889,,50,audio-slider-response,9,
919,list3,,,,,,0.0-6.0-1.22,,,,,,,,,,328397,,51,html-keyboard-response,,
919,list3,,,,,,0.0-6.0-0.23,neutral,,,,control,5000,246,audio/246_CN19.wav,,338405,,52,audio-slider-response,19,
919,list3,,,,,,0.0-6.0-1.23,,,,,,,,,,338916,,53,html-keyboard-response,,
919,list3,,,,,,0.0-6.0-0.24,neutral,5973,,6520,low,5000,246,audio/246_SN9_low.wav,,345437,,54,audio-slider-response,9,
919,list3,,,,,,0.0-6.0-1.24,,,,,,,,,,345948,,55,html-keyboard-response,,
919,list3,,,,,,0.0-6.0-0.25,neutral,7547,,5219,control,5000,723,audio/723_CN21.wav,,351172,,56,audio-slider-response,21,
919,list3,,,,,,0.0-6.0-1.25,,,,,,,,,,351688,,57,html-keyboard-response,,
919,list3,,,,,,0.0-6.0-0.26,neutral,6387,,4971,control,5000,246,audio/246_CN7.wav,,356666,,58,audio-slider-response,7,
919,list3,,,,,,0.0-6.0-1.26,,,,,,,,,,357168,,59,html-keyboard-response,,
919,list3,,,,,,0.0-6.0-0.27,neutral,6553,,2480,control,5000,723,audio/723_CN13.wav,,359661,,60,audio-slider-response,13,
919,list3,,,,,,0.0-6.0-1.27,,,,,,,,,,360164,,61,html-keyboard-response,,
919,list3,,,,,,0.0-6.0-0.28,neutral,7629,,4352,low,5000,723,audio/723_SN5_low.wav,,364518,,62,audio-slider-response,5,
919,list3,,,,,,0.0-6.0-1.28,,,,,,,,,,365025,,63,html-keyboard-response,,
919,list3,,,,,,0.0-6.0-0.29,neutral,7692,,3059,mid,5000,246,audio/246_SN8_mid.wav,,368086,,64,audio-slider-response,8,
919,list3,,,,,,0.0-6.0-1.29,,,,,,,,,,368588,,65,html-keyboard-response,,
919,list3,,,,,,0.0-6.0-0.30,neutral,7153,,2371,control,5000,246,audio/246_CN15.wav,,370955,,66,audio-slider-response,15,
919,list3,,,,,,0.0-6.0-1.30,,,,,,,,,,371464,,67,html-keyboard-response,,
919,list3,,,,,,0.0-6.0-0.31,neutral,7981,,3400,mid,5000,246,audio/246_SN13_mid.wav,,374873,,68,audio-slider-response,13,
919,list3,,,,,,0.0-6.0-1.31,,,,,,,,,,375380,,69,html-keyboard-response,,
919,list3,,,,,,0.0-6.0-0.32,neutral,7547,,3432,high,5000,723,audio/723_SN16_high.wav,,378807,,70,audio-slider-response,16,
919,list3,,,,,,0.0-6.0-1.32,,,,,,,,,,379312,,71,html-keyboard-response,,
919,list3,,,,,,0.0-6.0-0.33,neutral,7650,,3851,mid,5000,246,audio/246_SN7_mid.wav,,383169,,72,audio-slider-response,7,
919,list3,,,,,,0.0-6.0-1.33,,,,,,,,,,383679,,73,html-keyboard-response,,
919,list3,,,,,,0.0-6.0-0.34,neutral,5725,,3179,high,5000,723,audio/723_SN2_high.wav,,386860,,74,audio-slider-response,2,
919,list3,,,,,,0.0-6.0-1.34,,,,,,,,,,387370,,75,html-keyboard-response,,
919,list3,,,,,,0.0-6.0-0.35,neutral,,,,control,5000,723,audio/723_CN5.wav,,397381,,76,audio-slider-response,5,
919,list3,,,,,,0.0-6.0-1.35,,,,,,,,,,397891,,77,html-keyboard-response,,
919,list3,,,,,,0.0-6.0-0.36,neutral,3737,,4421,control,5000,246,audio/246_CN10.wav,,402324,,78,audio-slider-response,10,
919,list3,,,,,,0.0-6.0-1.36,,,,,,,,,,402830,,79,html-keyboard-response,,
919,list3,,,,,,0.0-6.0-0.37,neutral,5476,,3869,low,5000,723,audio/723_SN20_low.wav,,406693,,80,audio-slider-response,20,
919,list3,,,,,,0.0-6.0-1.37,,,,,,,,,,407198,,81,html-keyboard-response,,
919,list3,,,,,,0.0-6.0-0.38,neutral,5704,,5680,control,5000,723,audio/723_CN9.wav,,412881,,82,audio-slider-response,9,
919,list3,,,,,,0.0-6.0-1.38,,,,,,,,,,413386,,83,html-keyboard-response,,
919,list3,,,,,,0.0-6.0-0.39,neutral,8188,,4389,control,5000,723,audio/723_CN8.wav,,417780,,84,audio-slider-response,8,
919,list3,,,,,,0.0-6.0-1.39,,,,,,,,,,418291,,85,html-keyboard-response,,
919,list3,,,,,,0.0-6.0-0.40,neutral,5952,,5491,control,5000,723,audio/723_CN16.wav,,423782,,86,audio-slider-response,16,
919,list3,,,,,,0.0-6.0-1.40,,,,,,,,,,424299,,87,html-keyboard-response,,
919,list3,,,,,,0.0-6.0-0.41,neutral,3012,,3811,mid,5000,246,audio/246_SN1_mid.wav,,428116,,88,audio-slider-response,1,
919,list3,,,,,,0.0-6.0-1.41,,,,,,,,,,428620,,89,html-keyboard-response,,
919,list3,,,,,,0.0-6.0-0.42,neutral,4006,,3592,control,5000,723,audio/723_CN4.wav,,432202,,90,audio-slider-response,4,
919,list3,,,,,,0.0-6.0-1.42,,,,,,,,,,432718,,91,html-keyboard-response,,
919,list3,,,,,,0.0-6.0-0.43,neutral,6967,,4171,control,5000,246,audio/246_CN17.wav,,436895,,92,audio-slider-response,17,
919,list3,,,,,,0.0-6.0-1.43,,,,,,,,,,437398,,93,html-keyboard-response,,
919,list3,,,,,,0.0-6.0-0.44,neutral,6760,,3989,control,5000,723,audio/723_CN1.wav,,441385,,94,audio-slider-response,1,
919,list3,,,,,,0.0-6.0-1.44,,,,,,,,,,441888,,95,html-keyboard-response,,
919,list3,,,,,,0.0-6.0-0.45,neutral,,,,low,5000,246,audio/246_SN20_low.wav,,451900,,96,audio-slider-response,20,
919,list3,,,,,,0.0-6.0-1.45,,,,,,,,,,452406,,97,html-keyboard-response,,
919,list3,,,,,,0.0-6.0-0.46,neutral,4337,,3509,low,5000,246,audio/246_SN15_low.wav,,455918,,98,audio-slider-response,15,
919,list3,,,,,,0.0-6.0-1.46,,,,,,,,,,456422,,99,html-keyboard-response,,
919,list3,,,,,,0.0-6.0-0.47,neutral,6801,,2981,control,5000,246,audio/246_CN3.wav,,459409,,100,audio-slider-response,3,
919,list3,,,,,,0.0-6.0-1.47,,,,,,,,,,459921,,101,html-keyboard-response,,
919,list3,,,,,,0.0-6.0-0.48,neutral,7153,,4520,control,5000,246,audio/246_CN4.wav,,464446,,102,audio-slider-response,4,
919,list3,,,,,,0.0-6.0-1.48,,,,,,,,,,464951,,103,html-keyboard-response,,
919,list3,,,,,,0.0-6.0-0.49,neutral,4317,,6600,control,5000,246,audio/246_CN5.wav,,471553,,104,audio-slider-response,5,
919,list3,,,,,,0.0-6.0-1.49,,,,,,,,,,472060,,105,html-keyboard-response,,
919,list3,,,,,,0.0-6.0-0.50,neutral,6284,,2861,low,5000,246,audio/246_SN19_low.wav,,474915,,106,audio-slider-response,19,
919,list3,,,,,,0.0-6.0-1.50,,,,,,,,,,475416,,107,html-keyboard-response,,
919,list3,,,,,,0.0-6.0-0.51,neutral,4130,,5301,control,5000,246,audio/246_CN13.wav,,480711,,108,audio-slider-response,13,
919,list3,,,,,,0.0-6.0-1.51,,,,,,,,,,481216,,109,html-keyboard-response,,
919,list3,,,,,,0.0-6.0-0.52,neutral,8126,,4312,high,5000,723,audio/723_SN4_high.wav,,485525,,110,audio-slider-response,4,
919,list3,,,,,,0.0-6.0-1.52,,,,,,,,,,486034,,111,html-keyboard-response,,
919,list3,,,,,,0.0-6.0-0.53,neutral,7091,,4869,low,5000,246,audio/246_SN18_low.wav,,490908,,112,audio-slider-response,18,
919,list3,,,,,,0.0-6.0-1.53,,,,,,,,,,491419,,113,html-keyboard-response,,
919,list3,,,,,,0.0-6.0-0.54,neutral,7091,,3541,low,5000,723,audio/723_SN15_low.wav,,494953,,114,audio-slider-response,15,
919,list3,,,,,,0.0-6.0-1.54,,,,,,,,,,495461,,115,html-keyboard-response,,
919,list3,,,,,,0.0-6.0-0.55,neutral,7091,,2709,control,5000,723,audio/723_CN2.wav,,498178,,116,audio-slider-response,2,
919,list3,,,,,,0.0-6.0-1.55,,,,,,,,,,498681,,117,html-keyboard-response,,
919,list3,,,,,,0.0-6.0-0.56,neutral,6615,,3328,high,5000,246,audio/246_SN10_high.wav,,502018,,118,audio-slider-response,10,
919,list3,,,,,,0.0-6.0-1.56,,,,,,,,,,502528,,119,html-keyboard-response,,
919,list3,,,,,,0.0-6.0-0.57,neutral,2350,,3920,low,5000,246,audio/246_SN5_low.wav,,506450,,120,audio-slider-response,5,
919,list3,,,,,,0.0-6.0-1.57,,,,,,,,,,506960,,121,html-keyboard-response,,
919,list3,,,,,,0.0-6.0-0.58,neutral,7795,,3819,control,5000,723,audio/723_CN3.wav,,510795,,122,audio-slider-response,3,
919,list3,,,,,,0.0-6.0-1.58,,,,,,,,,,511308,,123,html-keyboard-response,,
919,list3,,,,,,0.0-6.0-0.59,neutral,6884,,3171,control,5000,723,audio/723_CN14.wav,,514479,,124,audio-slider-response,14,
919,list3,,,,,,0.0-6.0-1.59,,,,,,,,,,514991,,125,html-keyboard-response,,
919,list3,,,,,,0.0-6.0-0.60,neutral,7112,,3120,low,5000,723,audio/723_SN18_low.wav,,518114,,126,audio-slider-response,18,
919,list3,,,,,,0.0-6.0-1.60,,,,,,,,,,518620,,127,html-keyboard-response,,
919,list3,,,,,,0.0-6.0-0.61,neutral,6511,,3851,high,5000,723,audio/723_SN10_high.wav,,522464,,128,audio-slider-response,10,
919,list3,,,,,,0.0-6.0-1.61,,,,,,,,,,522970,,129,html-keyboard-response,,
919,list3,,,,,,0.0-6.0-0.62,neutral,,,,control,5000,246,audio/246_CN8.wav,,532982,,130,audio-slider-response,8,
919,list3,,,,,,0.0-6.0-1.62,,,,,,,,,,533500,,131,html-keyboard-response,,
919,list3,,,,,,0.0-6.0-0.63,neutral,,,,control,5000,246,audio/246_CN20.wav,,543506,,132,audio-slider-response,20,
919,list3,,,,,,0.0-6.0-1.63,,,,,,,,,,544019,,133,html-keyboard-response,,
919,list3,,,,,,0.0-6.0-0.64,neutral,,,,high,5000,246,audio/246_SN21_high.wav,,554031,,134,audio-slider-response,21,
919,list3,,,,,,0.0-6.0-1.64,,,,,,,,,,554537,,135,html-keyboard-response,,
919,list3,,,,,,0.0-6.0-0.65,neutral,,,,control,5000,723,audio/723_CN10.wav,,564549,,136,audio-slider-response,10,
919,list3,,,,,,0.0-6.0-1.65,,,,,,,,,,565051,,137,html-keyboard-response,,
919,list3,,,,,,0.0-6.0-0.66,neutral,,,,control,5000,723,audio/723_CN19.wav,,575062,,138,audio-slider-response,19,
919,list3,,,,,,0.0-6.0-1.66,,,,,,,,,,575572,,139,html-keyboard-response,,
919,list3,,,,,,0.0-6.0-0.67,neutral,,,,high,5000,246,audio/246_SN4_high.wav,,585584,,140,audio-slider-response,4,
919,list3,,,,,,0.0-6.0-1.67,,,,,,,,,,586093,,141,html-keyboard-response,,
919,list3,,,,,,0.0-6.0-0.68,neutral,7133,,2909,control,5000,723,audio/723_CN17.wav,,589006,,142,audio-slider-response,17,
919,list3,,,,,,0.0-6.0-1.68,,,,,,,,,,589512,,143,html-keyboard-response,,
919,list3,,,,,,0.0-6.0-0.69,neutral,7547,,2208,mid,5000,723,audio/723_SN1_mid.wav,,591719,,144,audio-slider-response,1,
919,list3,,,,,,0.0-6.0-1.69,,,,,,,,,,592222,,145,html-keyboard-response,,
919,list3,,,,,,0.0-6.0-0.70,neutral,,,,control,5000,246,audio/246_CN16.wav,,602233,,146,audio-slider-response,16,
919,list3,,,,,,0.0-6.0-1.70,,,,,,,,,,602743,,147,html-keyboard-response,,
919,list3,,,,,,0.0-6.0-0.71,neutral,3882,,4168,mid,5000,246,audio/246_SN14_mid.wav,,606919,,148,audio-slider-response,14,
919,list3,,,,,,0.0-6.0-1.71,,,,,,,,,,607423,,149,html-keyboard-response,,
919,list3,,,,,,0.0-7.0,,0,,9039,,,,"<p><font size='3'>You have completed the listening trials. You will now complete a short questionnaire. During the questionnaire, you will see a series of statements alongside a scale. Click along the scale to indicate how much you agree or disagree with the statement. Upon completion of the questionnaire, you will be asked to fill out an optional demographic survey. <br><br>When you're ready to begin the questionnaire, click ‘Continue’.</font></p>",,616471,,150,html-button-response,,
919,list3,,NEGATIVE,,,,0.0-8.0-0.0,,7920,,5478,,5000,,People can be both aggressive and nurturing regardless of sex.<br><br>,,621957,,151,html-slider-response,,
919,list3,,POSITIVE,,,,0.0-8.0-0.1,,3302,,3069,,5000,,Men are more sexual than women.<br><br>,,625030,,152,html-slider-response,,
919,list3,,POSITIVE,,,,0.0-8.0-0.2,,7153,,4856,,5000,,Girls should be protected and watched over more than boys.<br><br>,,629889,,153,html-slider-response,,
919,list3,,POSITIVE,,,,0.0-8.0-0.3,,3613,,3577,,5000,,"For many important jobs, it is better to choose men instead of women.<br><br>",,633470,,154,html-slider-response,,
919,list3,,NEGATIVE,,,,0.0-8.0-0.4,,8106,,3946,,5000,,We should stop thinking about whether people are male or female and focus on other characteristics.<br><br>,,637420,,155,html-slider-response,,
919,list3,,POSITIVE,,,,0.0-8.0-0.5,,8251,,3656,,5000,,Some types of work are just not appropriate for women.<br><br>,,641080,,156,html-slider-response,,
919,list3,,POSITIVE,,,,0.0-8.0-0.6,,7692,,4259,,5000,,Mothers should make most decisions about how children are brought up.<br><br>,,645342,,157,html-slider-response,,
919,list3,,NEGATIVE,,,,0.0-8.0-0.7,,4006,,3897,,5000,,People should be treated the same regardless of their sex.<br><br>,,649242,,158,html-slider-response,,
919,list3,,POSITIVE,,,,0.0-8.0-0.8,,2971,,3933,,5000,,Mothers should work only if necessary.<br><br>,,653178,,159,html-slider-response,,
919,list3,,POSITIVE,,,,0.0-8.0-0.9,,7568,,3106,,5000,,A father’s major responsibility is to provide financially for his children.<br><br>,,656287,,160,html-slider-response,,
919,list3,,NEGATIVE,,,,0.0-8.0-0.10,,7671,,5390,,5000,,The freedom that children are given should be determined by their age and maturity level and not by their sex.<br><br>,,661681,,161,html-slider-response,,
919,list3,,NEGATIVE,,,,0.0-8.0-0.11,,3095,,4192,,5000,,Tasks around the house should not be assigned by sex.<br><br>,,665876,,162,html-slider-response,,
919,list3,,POSITIVE,,,,0.0-8.0-0.12,,7650,,3725,,5000,,Only some types of work are appropriate for both men and women.<br><br>,,669604,,163,html-slider-response,,
919,list3,,,,,,0.0-9.0,,0,,9373,,,,"<p><font size='3'>You have completed the questionnaire. There will now be an optional survey. Please answer the following questions if you feel comfortable doing so. If you do not wish to answer a question, please leave it blank. <br><br>When you're ready to procede, click ‘Continue’.</font></p>",,678980,,164,html-button-response,,
919,list3,[],,,,,0.0-10.0,,"{'age': '27', 'race': 'Hispanic', 'P0_Q0': None, 'enjoy': '', 'gender': 'Male', 'region': 'Northeast - CT, DC, DE, MA, MD, ME, NH, NJ, NY, PA, RI, VT', 'correct': 'Yes', 'payment': 'The payment was fair', 'comments': '', 'language': '', 'education': 'Hold a higher degree', 'political': 'Somewhat Conservative'}",,54119,,,,,,733419,,165,survey,,
919,list3,,,,,,0.0-11.0,,0,,3106,,,,Thank you for your time! Please click 'Finish' and then wait a moment until you're directed back to Prolific.<br><br>,,736530,,166,html-button-response,,
929,list3,,,[],[],[],0.0-0.0,,,,,,,,,True,353,False,0,preload,,
929,list3,,,,,,0.0-1.0,,0,,186327,,,,"<p><font size='3'>DESCRIPTION: You are invited to participate in a research study. Its general purpose is to understand how people perceive speech. We are interested in how people make use of varying properties of language to infer social information about a speaker. In this study, you will hear spoken sentences, and you will be asked to make simple decisions about the sentences you hear. Following this, you will be asked to complete a short questionnaire, where you will indicate on a sliding scale how much you agree or disagree with a series of statements. You will also be asked to complete an optional demographic survey. <br><br>TIME INVOLVEMENT: Your participation will take approximately 10 to 20 minutes. <br><br>RISKS AND BENEFITS: The foreseeable risks associated with this study are minimal. This judgment is based on a large body of experience with the same or similar procedures with people of similar ages, sex, origins, etc. Study data will be stored securely, in compliance with Stanford University standards, minimizing the risk of confidentiality breach. There are no known benefits to you for participating in this study, and we cannot and do not guarantee or promise that you will receive any benefits from this study. You will help us to understand how people perceive spoken language. <br><br>PAYMENT: You will be paid at the posted rate. <br><br>PARTICIPANT RIGHTS: If you have read this form and have decided to participate in this project, please understand your participation is voluntary and you have the right to withdraw your consent or discontinue participation at any time without penalty or loss of benefits to which you are otherwise entitled. The alternative is not to participate. You have the right to refuse to answer particular questions. The results of this research study may be presented at scientific or professional meetings or published in scientific journals. Your individual privacy will be maintained in all published and written data resulting from the study. In accordance with scientific norms, the data from this study may be used or shared with other researchers for future research (after removing personally identifying information) without additional consent from you. <br><br>CONTACT INFORMATION: If you have any questions, concerns or complaints about this research study, its procedures, risks and benefits, you should contact the Protocol Director Grace Brown at (616) 498-8188. If you are not satisfied with how this study is being conducted, or if you have any concerns, complaints, or general questions about the research or your rights as a participant, please contact the Stanford Institutional Review Board (IRB) to speak to someone independent of the research team at (650) 723-2480 or toll free at 1-866-680-2906. You can also write to the Stanford IRB, Stanford University, 3000 El Camino Real, Five Palo Alto Square, 4th Floor, Palo Alto, CA 94306 USA. <br><br>WAIVER OF DOCUMENTATION: If you agree to participate in this research, please click the 'Continue' button. </font></p>",,186682,,1,html-button-response,,
929,list3,,,,,,0.0-2.0,,,,,,,,"<p><font size='3'>This study requires you to listen to audio clips. To ensure you can adequately hear the audio presented in this study, the next page will have an audio attention check. Please wear headphones, and be prepared to adjust the volume on your device if necessary. <br><br> When you are ready to begin the audio attention check, click 'Start'. </font></p>",,196683,,2,html-button-response,,
929,list3,,,,,,0.0-3.0,,2,correct,2190,,,,audio/gift.wav,,198933,,3,audio-button-response,,
929,list3,,,,,,0.0-4.0,,0,,1744,,,,<p>Correct! You are ready to begin the study.</p>,,200678,,4,html-button-response,,
929,list3,,,,,,0.0-5.0,,0,,20553,,,,"<p><font size='3'>In this experiment, you will listen to a series of sentences, produced by different speakers. While listening to each sentence, you will be prompted to rate the social characteristics of its speaker. To rate the social characteristics of a speaker, click along the scale that appears on your screen. You may click along this scale after the speaker stops talking. Try to respond as quickly as you can. If you do not respond within ten seconds, the experiment will advance automatically. There will be a progress bar at the top of the screen. When you're ready to hear the first speaker, click ‘Start’. </font></p>",,221231,,5,html-button-response,,
929,list3,,,,,,0.0-6.0-0.0,neutral,1128,,3350,low,5000,246,audio/246_SN18_low.wav,,224589,,6,audio-slider-response,18,
929,list3,,,,,,0.0-6.0-1.0,,,,,,,,,,225090,,7,html-keyboard-response,,
929,list3,,,,,,0.0-6.0-0.1,neutral,10000,,3340,high,5000,723,audio/723_SN17_high.wav,,228431,,8,audio-slider-response,17,
929,list3,,,,,,0.0-6.0-1.1,,,,,,,,,,228932,,9,html-keyboard-response,,
929,list3,,,,,,0.0-6.0-0.2,neutral,10000,,3130,control,5000,723,audio/723_CN20.wav,,232068,,10,audio-slider-response,20,
929,list3,,,,,,0.0-6.0-1.2,,,,,,,,,,232569,,11,html-keyboard-response,,
929,list3,,,,,,0.0-6.0-0.3,neutral,0,,4000,high,5000,246,audio/246_SN10_high.wav,,236566,,12,audio-slider-response,10,
929,list3,,,,,,0.0-6.0-1.3,,,,,,,,,,237068,,13,html-keyboard-response,,
929,list3,,,,,,0.0-6.0-0.4,neutral,0,,3760,control,5000,246,audio/246_CN16.wav,,240830,,14,audio-slider-response,16,
929,list3,,,,,,0.0-6.0-1.4,,,,,,,,,,241332,,15,html-keyboard-response,,
929,list3,,,,,,0.0-6.0-0.5,neutral,0,,2820,control,5000,246,audio/246_CN19.wav,,244150,,16,audio-slider-response,19,
929,list3,,,,,,0.0-6.0-1.5,,,,,,,,,,244652,,17,html-keyboard-response,,
929,list3,,,,,,0.0-6.0-0.6,neutral,8623,,4350,low,5000,723,audio/723_SN5_low.wav,,248990,,18,audio-slider-response,5,
929,list3,,,,,,0.0-6.0-1.6,,,,,,,,,,249492,,19,html-keyboard-response,,
929,list3,,,,,,0.0-6.0-0.7,neutral,0,,3340,control,5000,246,audio/246_CN14.wav,,252839,,20,audio-slider-response,14,
929,list3,,,,,,0.0-6.0-1.7,,,,,,,,,,253339,,21,html-keyboard-response,,
929,list3,,,,,,0.0-6.0-0.8,neutral,0,,5630,mid,5000,246,audio/246_SN1_mid.wav,,258980,,22,audio-slider-response,1,
929,list3,,,,,,0.0-6.0-1.8,,,,,,,,,,259480,,23,html-keyboard-response,,
929,list3,,,,,,0.0-6.0-0.9,neutral,10000,,2680,high,5000,723,audio/723_SN21_high.wav,,262170,,24,audio-slider-response,21,
929,list3,,,,,,0.0-6.0-1.9,,,,,,,,,,262671,,25,html-keyboard-response,,
929,list3,,,,,,0.0-6.0-0.10,neutral,7112,,5080,mid,5000,723,audio/723_SN14_mid.wav,,267758,,26,audio-slider-response,14,
929,list3,,,,,,0.0-6.0-1.10,,,,,,,,,,268259,,27,html-keyboard-response,,
929,list3,,,,,,0.0-6.0-0.11,neutral,7422,,3850,high,5000,723,audio/723_SN10_high.wav,,272108,,28,audio-slider-response,10,
929,list3,,,,,,0.0-6.0-1.11,,,,,,,,,,272609,,29,html-keyboard-response,,
929,list3,,,,,,0.0-6.0-0.12,neutral,7567,,3370,control,5000,723,audio/723_CN13.wav,,275977,,30,audio-slider-response,13,
929,list3,,,,,,0.0-6.0-1.12,,,,,,,,,,276477,,31,html-keyboard-response,,
929,list3,,,,,,0.0-6.0-0.13,neutral,7236,,4220,control,5000,723,audio/723_CN5.wav,,280695,,32,audio-slider-response,5,
929,list3,,,,,,0.0-6.0-1.13,,,,,,,,,,281196,,33,html-keyboard-response,,
929,list3,,,,,,0.0-6.0-0.14,neutral,7567,,3780,control,5000,723,audio/723_CN3.wav,,284984,,34,audio-slider-response,3,
929,list3,,,,,,0.0-6.0-1.14,,,,,,,,,,285485,,35,html-keyboard-response,,
929,list3,,,,,,0.0-6.0-0.15,neutral,10000,,3340,mid,5000,723,audio/723_SN1_mid.wav,,288826,,36,audio-slider-response,1,
929,list3,,,,,,0.0-6.0-1.15,,,,,,,,,,289327,,37,html-keyboard-response,,
929,list3,,,,,,0.0-6.0-0.16,neutral,0,,4900,control,5000,246,audio/246_CN21.wav,,294227,,38,audio-slider-response,21,
929,list3,,,,,,0.0-6.0-1.16,,,,,,,,,,294728,,39,html-keyboard-response,,
929,list3,,,,,,0.0-6.0-0.17,neutral,0,,3270,control,5000,246,audio/246_CN8.wav,,298000,,40,audio-slider-response,8,
929,list3,,,,,,0.0-6.0-1.17,,,,,,,,,,298501,,41,html-keyboard-response,,
929,list3,,,,,,0.0-6.0-0.18,neutral,8747,,4070,control,5000,723,audio/723_CN14.wav,,302563,,42,audio-slider-response,14,
929,list3,,,,,,0.0-6.0-1.18,,,,,,,,,,303064,,43,html-keyboard-response,,
929,list3,,,,,,0.0-6.0-0.19,neutral,0,,3650,control,5000,246,audio/246_CN7.wav,,306719,,44,audio-slider-response,7,
929,list3,,,,,,0.0-6.0-1.19,,,,,,,,,,307220,,45,html-keyboard-response,,
929,list3,,,,,,0.0-6.0-0.20,neutral,0,,6630,low,5000,246,audio/246_SN20_low.wav,,313849,,46,audio-slider-response,20,
929,list3,,,,,,0.0-6.0-1.20,,,,,,,,,,314350,,47,html-keyboard-response,,
929,list3,,,,,,0.0-6.0-0.21,neutral,8623,,3690,control,5000,723,audio/723_CN16.wav,,318042,,48,audio-slider-response,16,
929,list3,,,,,,0.0-6.0-1.21,,,,,,,,,,318543,,49,html-keyboard-response,,
929,list3,,,,,,0.0-6.0-0.22,neutral,10000,,2710,low,5000,723,audio/723_SN15_low.wav,,321254,,50,audio-slider-response,15,
929,list3,,,,,,0.0-6.0-1.22,,,,,,,,,,321755,,51,html-keyboard-response,,
929,list3,,,,,,0.0-6.0-0.23,neutral,10000,,3990,control,5000,723,audio/723_CN7.wav,,325746,,52,audio-slider-response,7,
929,list3,,,,,,0.0-6.0-1.23,,,,,,,,,,326247,,53,html-keyboard-response,,
929,list3,,,,,,0.0-6.0-0.24,neutral,10000,,5470,control,5000,723,audio/723_CN19.wav,,331713,,54,audio-slider-response,19,
929,list3,,,,,,0.0-6.0-1.24,,,,,,,,,,332214,,55,html-keyboard-response,,
929,list3,,,,,,0.0-6.0-0.25,neutral,0,,4190,high,5000,246,audio/246_SN21_high.wav,,336404,,56,audio-slider-response,21,
929,list3,,,,,,0.0-6.0-1.25,,,,,,,,,,336906,,57,html-keyboard-response,,
929,list3,,,,,,0.0-6.0-0.26,neutral,0,,2560,control,5000,246,audio/246_CN15.wav,,339463,,58,audio-slider-response,15,
929,list3,,,,,,0.0-6.0-1.26,,,,,,,,,,339964,,59,html-keyboard-response,,
929,list3,,,,,,0.0-6.0-0.27,neutral,0,,3860,low,5000,246,audio/246_SN5_low.wav,,343832,,60,audio-slider-response,5,
929,list3,,,,,,0.0-6.0-1.27,,,,,,,,,,344334,,61,html-keyboard-response,,
929,list3,,,,,,0.0-6.0-0.28,neutral,0,,4540,low,5000,246,audio/246_SN9_low.wav,,348880,,62,audio-slider-response,9,
929,list3,,,,,,0.0-6.0-1.28,,,,,,,,,,349382,,63,html-keyboard-response,,
929,list3,,,,,,0.0-6.0-0.29,neutral,10000,,3580,mid,5000,723,audio/723_SN13_mid.wav,,352955,,64,audio-slider-response,13,
929,list3,,,,,,0.0-6.0-1.29,,,,,,,,,,353456,,65,html-keyboard-response,,
929,list3,,,,,,0.0-6.0-0.30,neutral,10000,,2590,control,5000,723,audio/723_CN1.wav,,356054,,66,audio-slider-response,1,
929,list3,,,,,,0.0-6.0-1.30,,,,,,,,,,356555,,67,html-keyboard-response,,
929,list3,,,,,,0.0-6.0-0.31,neutral,10000,,4150,control,5000,723,audio/723_CN10.wav,,360706,,68,audio-slider-response,10,
929,list3,,,,,,0.0-6.0-1.31,,,,,,,,,,361207,,69,html-keyboard-response,,
929,list3,,,,,,0.0-6.0-0.32,neutral,10000,,2930,high,5000,723,audio/723_SN4_high.wav,,364140,,70,audio-slider-response,4,
929,list3,,,,,,0.0-6.0-1.32,,,,,,,,,,364641,,71,html-keyboard-response,,
929,list3,,,,,,0.0-6.0-0.33,neutral,0,,4720,high,5000,246,audio/246_SN16_high.wav,,369362,,72,audio-slider-response,16,
929,list3,,,,,,0.0-6.0-1.33,,,,,,,,,,369862,,73,html-keyboard-response,,
929,list3,,,,,,0.0-6.0-0.34,neutral,0,,5840,mid,5000,246,audio/246_SN8_mid.wav,,375712,,74,audio-slider-response,8,
929,list3,,,,,,0.0-6.0-1.34,,,,,,,,,,376212,,75,html-keyboard-response,,
929,list3,,,,,,0.0-6.0-0.35,neutral,0,,2910,high,5000,246,audio/246_SN4_high.wav,,379128,,76,audio-slider-response,4,
929,list3,,,,,,0.0-6.0-1.35,,,,,,,,,,379628,,77,html-keyboard-response,,
929,list3,,,,,,0.0-6.0-0.36,neutral,10000,,3510,high,5000,723,audio/723_SN2_high.wav,,383139,,78,audio-slider-response,2,
929,list3,,,,,,0.0-6.0-1.36,,,,,,,,,,383640,,79,html-keyboard-response,,
929,list3,,,,,,0.0-6.0-0.37,neutral,10000,,4010,mid,5000,723,audio/723_SN7_mid.wav,,387652,,80,audio-slider-response,7,
929,list3,,,,,,0.0-6.0-1.37,,,,,,,,,,388153,,81,html-keyboard-response,,
929,list3,,,,,,0.0-6.0-0.38,neutral,0,,4050,control,5000,246,audio/246_CN1.wav,,392197,,82,audio-slider-response,1,
929,list3,,,,,,0.0-6.0-1.38,,,,,,,,,,392698,,83,html-keyboard-response,,
929,list3,,,,,,0.0-6.0-0.39,neutral,0,,2730,control,5000,246,audio/246_CN2.wav,,395431,,84,audio-slider-response,2,
929,list3,,,,,,0.0-6.0-1.39,,,,,,,,,,395932,,85,html-keyboard-response,,
929,list3,,,,,,0.0-6.0-0.40,neutral,10000,,4590,low,5000,723,audio/723_SN18_low.wav,,400517,,86,audio-slider-response,18,
929,list3,,,,,,0.0-6.0-1.40,,,,,,,,,,401018,,87,html-keyboard-response,,
929,list3,,,,,,0.0-6.0-0.41,neutral,0,,2820,control,5000,246,audio/246_CN3.wav,,403839,,88,audio-slider-response,3,
929,list3,,,,,,0.0-6.0-1.41,,,,,,,,,,404340,,89,html-keyboard-response,,
929,list3,,,,,,0.0-6.0-0.42,neutral,0,,2680,low,5000,246,audio/246_SN15_low.wav,,407014,,90,audio-slider-response,15,
929,list3,,,,,,0.0-6.0-1.42,,,,,,,,,,407515,,91,html-keyboard-response,,
929,list3,,,,,,0.0-6.0-0.43,neutral,0,,3230,low,5000,246,audio/246_SN19_low.wav,,410748,,92,audio-slider-response,19,
929,list3,,,,,,0.0-6.0-1.43,,,,,,,,,,411249,,93,html-keyboard-response,,
929,list3,,,,,,0.0-6.0-0.44,neutral,10000,,6820,control,5000,723,audio/723_CN9.wav,,418071,,94,audio-slider-response,9,
929,list3,,,,,,0.0-6.0-1.44,,,,,,,,,,418572,,95,html-keyboard-response,,
929,list3,,,,,,0.0-6.0-0.45,neutral,0,,5890,mid,5000,246,audio/246_SN7_mid.wav,,424457,,96,audio-slider-response,7,
929,list3,,,,,,0.0-6.0-1.45,,,,,,,,,,424958,,97,html-keyboard-response,,
929,list3,,,,,,0.0-6.0-0.46,neutral,0,,2830,control,5000,246,audio/246_CN13.wav,,427786,,98,audio-slider-response,13,
929,list3,,,,,,0.0-6.0-1.46,,,,,,,,,,428288,,99,html-keyboard-response,,
929,list3,,,,,,0.0-6.0-0.47,neutral,0,,3970,control,5000,246,audio/246_CN10.wav,,432262,,100,audio-slider-response,10,
929,list3,,,,,,0.0-6.0-1.47,,,,,,,,,,432763,,101,html-keyboard-response,,
929,list3,,,,,,0.0-6.0-0.48,neutral,10000,,3690,control,5000,723,audio/723_CN4.wav,,436456,,102,audio-slider-response,4,
929,list3,,,,,,0.0-6.0-1.48,,,,,,,,,,436957,,103,html-keyboard-response,,
929,list3,,,,,,0.0-6.0-0.49,neutral,10000,,3560,mid,5000,723,audio/723_SN3_mid.wav,,440524,,104,audio-slider-response,3,
929,list3,,,,,,0.0-6.0-1.49,,,,,,,,,,441026,,105,html-keyboard-response,,
929,list3,,,,,,0.0-6.0-0.50,neutral,10000,,6510,control,5000,723,audio/723_CN18.wav,,447527,,106,audio-slider-response,18,
929,list3,,,,,,0.0-6.0-1.50,,,,,,,,,,448028,,107,html-keyboard-response,,
929,list3,,,,,,0.0-6.0-0.51,neutral,0,,3460,mid,5000,246,audio/246_SN14_mid.wav,,451489,,108,audio-slider-response,14,
929,list3,,,,,,0.0-6.0-1.51,,,,,,,,,,451989,,109,html-keyboard-response,,
929,list3,,,,,,0.0-6.0-0.52,neutral,0,,3760,mid,5000,246,audio/246_SN3_mid.wav,,455753,,110,audio-slider-response,3,
929,list3,,,,,,0.0-6.0-1.52,,,,,,,,,,456253,,111,html-keyboard-response,,
929,list3,,,,,,0.0-6.0-0.53,neutral,0,,3650,high,5000,246,audio/246_SN2_high.wav,,459902,,112,audio-slider-response,2,
929,list3,,,,,,0.0-6.0-1.53,,,,,,,,,,460403,,113,html-keyboard-response,,
929,list3,,,,,,0.0-6.0-0.54,neutral,10000,,4280,low,5000,723,audio/723_SN9_low.wav,,464685,,114,audio-slider-response,9,
929,list3,,,,,,0.0-6.0-1.54,,,,,,,,,,465185,,115,html-keyboard-response,,
929,list3,,,,,,0.0-6.0-0.55,neutral,10000,,4910,control,5000,723,audio/723_CN17.wav,,470098,,116,audio-slider-response,17,
929,list3,,,,,,0.0-6.0-1.55,,,,,,,,,,470600,,117,html-keyboard-response,,
929,list3,,,,,,0.0-6.0-0.56,neutral,10000,,3320,control,5000,723,audio/723_CN8.wav,,473919,,118,audio-slider-response,8,
929,list3,,,,,,0.0-6.0-1.56,,,,,,,,,,474420,,119,html-keyboard-response,,
929,list3,,,,,,0.0-6.0-0.57,neutral,10000,,2730,control,5000,723,audio/723_CN15.wav,,477149,,120,audio-slider-response,15,
929,list3,,,,,,0.0-6.0-1.57,,,,,,,,,,477650,,121,html-keyboard-response,,
929,list3,,,,,,0.0-6.0-0.58,neutral,10000,,9690,control,5000,723,audio/723_CN2.wav,,487338,,122,audio-slider-response,2,
929,list3,,,,,,0.0-6.0-1.58,,,,,,,,,,487839,,123,html-keyboard-response,,
929,list3,,,,,,0.0-6.0-0.59,neutral,10000,,3400,low,5000,723,audio/723_SN20_low.wav,,491238,,124,audio-slider-response,20,
929,list3,,,,,,0.0-6.0-1.59,,,,,,,,,,491738,,125,html-keyboard-response,,
929,list3,,,,,,0.0-6.0-0.60,neutral,10000,,3670,high,5000,723,audio/723_SN16_high.wav,,495410,,126,audio-slider-response,16,
929,list3,,,,,,0.0-6.0-1.60,,,,,,,,,,495911,,127,html-keyboard-response,,
929,list3,,,,,,0.0-6.0-0.61,neutral,0,,8610,control,5000,246,audio/246_CN5.wav,,504522,,128,audio-slider-response,5,
929,list3,,,,,,0.0-6.0-1.61,,,,,,,,,,505023,,129,html-keyboard-response,,
929,list3,,,,,,0.0-6.0-0.62,neutral,0,,5230,control,5000,246,audio/246_CN20.wav,,510248,,130,audio-slider-response,20,
929,list3,,,,,,0.0-6.0-1.62,,,,,,,,,,510749,,131,html-keyboard-response,,
929,list3,,,,,,0.0-6.0-0.63,neutral,10000,,4830,mid,5000,723,audio/723_SN8_mid.wav,,515580,,132,audio-slider-response,8,
929,list3,,,,,,0.0-6.0-1.63,,,,,,,,,,516081,,133,html-keyboard-response,,
929,list3,,,,,,0.0-6.0-0.64,neutral,10000,,3220,control,5000,723,audio/723_CN21.wav,,519308,,134,audio-slider-response,21,
929,list3,,,,,,0.0-6.0-1.64,,,,,,,,,,519809,,135,html-keyboard-response,,
929,list3,,,,,,0.0-6.0-0.65,neutral,0,,6320,control,5000,246,audio/246_CN17.wav,,526134,,136,audio-slider-response,17,
929,list3,,,,,,0.0-6.0-1.65,,,,,,,,,,526635,,137,html-keyboard-response,,
929,list3,,,,,,0.0-6.0-0.66,neutral,0,,4910,control,5000,246,audio/246_CN9.wav,,531554,,138,audio-slider-response,9,
929,list3,,,,,,0.0-6.0-1.66,,,,,,,,,,532056,,139,html-keyboard-response,,
929,list3,,,,,,0.0-6.0-0.67,neutral,0,,4320,control,5000,246,audio/246_CN4.wav,,536384,,140,audio-slider-response,4,
929,list3,,,,,,0.0-6.0-1.67,,,,,,,,,,536885,,141,html-keyboard-response,,
929,list3,,,,,,0.0-6.0-0.68,neutral,0,,5490,mid,5000,246,audio/246_SN13_mid.wav,,542375,,142,audio-slider-response,13,
929,list3,,,,,,0.0-6.0-1.68,,,,,,,,,,542876,,143,html-keyboard-response,,
929,list3,,,,,,0.0-6.0-0.69,neutral,0,,5580,control,5000,246,audio/246_CN18.wav,,548455,,144,audio-slider-response,18,
929,list3,,,,,,0.0-6.0-1.69,,,,,,,,,,548957,,145,html-keyboard-response,,
929,list3,,,,,,0.0-6.0-0.70,neutral,10000,,4610,low,5000,723,audio/723_SN19_low.wav,,553560,,146,audio-slider-response,19,
929,list3,,,,,,0.0-6.0-1.70,,,,,,,,,,554061,,147,html-keyboard-response,,
929,list3,,,,,,0.0-6.0-0.71,neutral,0,,6300,high,5000,246,audio/246_SN17_high.wav,,560363,,148,audio-slider-response,17,
929,list3,,,,,,0.0-6.0-1.71,,,,,,,,,,560863,,149,html-keyboard-response,,
929,list3,,,,,,0.0-7.0,,0,,9166,,,,"<p><font size='3'>You have completed the listening trials. You will now complete a short questionnaire. During the questionnaire, you will see a series of statements alongside a scale. Click along the scale to indicate how much you agree or disagree with the statement. Upon completion of the questionnaire, you will be asked to fill out an optional demographic survey. <br><br>When you're ready to begin the questionnaire, click ‘Continue’.</font></p>",,570030,,150,html-button-response,,
929,list3,,NEGATIVE,,,,0.0-8.0-0.0,,0,,6744,,5000,,We should stop thinking about whether people are male or female and focus on other characteristics.<br><br>,,576775,,151,html-slider-response,,
929,list3,,POSITIVE,,,,0.0-8.0-0.1,,0,,3512,,5000,,Some types of work are just not appropriate for women.<br><br>,,580288,,152,html-slider-response,,
929,list3,,POSITIVE,,,,0.0-8.0-0.2,,0,,5328,,5000,,Mothers should make most decisions about how children are brought up.<br><br>,,585617,,153,html-slider-response,,
929,list3,,NEGATIVE,,,,0.0-8.0-0.3,,10000,,5346,,5000,,People can be both aggressive and nurturing regardless of sex.<br><br>,,590964,,154,html-slider-response,,
929,list3,,POSITIVE,,,,0.0-8.0-0.4,,0,,2614,,5000,,Mothers should work only if necessary.<br><br>,,593579,,155,html-slider-response,,
929,list3,,POSITIVE,,,,0.0-8.0-0.5,,0,,5236,,5000,,Only some types of work are appropriate for both men and women.<br><br>,,598816,,156,html-slider-response,,
929,list3,,POSITIVE,,,,0.0-8.0-0.6,,6553,,4985,,5000,,Girls should be protected and watched over more than boys.<br><br>,,603802,,157,html-slider-response,,
929,list3,,NEGATIVE,,,,0.0-8.0-0.7,,10000,,3830,,5000,,Tasks around the house should not be assigned by sex.<br><br>,,607632,,158,html-slider-response,,
929,list3,,NEGATIVE,,,,0.0-8.0-0.8,,7360,,6512,,5000,,The freedom that children are given should be determined by their age and maturity level and not by their sex.<br><br>,,614145,,159,html-slider-response,,
929,list3,,POSITIVE,,,,0.0-8.0-0.9,,2205,,4954,,5000,,Men are more sexual than women.<br><br>,,619099,,160,html-slider-response,,
929,list3,,POSITIVE,,,,0.0-8.0-0.10,,,,,,5000,,A father’s major responsibility is to provide financially for his children.<br><br>,,639101,,161,html-slider-response,,
929,list3,,NEGATIVE,,,,0.0-8.0-0.11,,10000,,4062,,5000,,People should be treated the same regardless of their sex.<br><br>,,643163,,162,html-slider-response,,
929,list3,,POSITIVE,,,,0.0-8.0-0.12,,0,,4093,,5000,,"For many important jobs, it is better to choose men instead of women.<br><br>",,647257,,163,html-slider-response,,
929,list3,,,,,,0.0-9.0,,0,,3791,,,,"<p><font size='3'>You have completed the questionnaire. There will now be an optional survey. Please answer the following questions if you feel comfortable doing so. If you do not wish to answer a question, please leave it blank. <br><br>When you're ready to procede, click ‘Continue’.</font></p>",,651050,,164,html-button-response,,
929,list3,[],,,,,0.0-10.0,,"{'age': '38', 'race': 'African American', 'P0_Q0': None, 'enjoy': 'Better than the average experiment', 'gender': 'Male', 'region': 'Northeast - CT, DC, DE, MA, MD, ME, NH, NJ, NY, PA, RI, VT', 'correct': 'Yes', 'payment': 'The payment was fair', 'comments': 'No.', 'language': 'English', 'education': 'Graduated college', 'political': 'Somewhat Progressive'}",,70087,,,,,,721173,,165,survey,,
929,list3,,,,,,0.0-11.0,,0,,1318,,,,Thank you for your time! Please click 'Finish' and then wait a moment until you're directed back to Prolific.<br><br>,,722491,,166,html-button-response,,
907,list3,,,[],[],[],0.0-0.0,,,,,,,,,True,267,False,0,preload,,
907,list3,,,,,,0.0-1.0,,0,,15405,,,,"<p><font size='3'>DESCRIPTION: You are invited to participate in a research study. Its general purpose is to understand how people perceive speech. We are interested in how people make use of varying properties of language to infer social information about a speaker. In this study, you will hear spoken sentences, and you will be asked to make simple decisions about the sentences you hear. Following this, you will be asked to complete a short questionnaire, where you will indicate on a sliding scale how much you agree or disagree with a series of statements. You will also be asked to complete an optional demographic survey. <br><br>TIME INVOLVEMENT: Your participation will take approximately 10 to 20 minutes. <br><br>RISKS AND BENEFITS: The foreseeable risks associated with this study are minimal. This judgment is based on a large body of experience with the same or similar procedures with people of similar ages, sex, origins, etc. Study data will be stored securely, in compliance with Stanford University standards, minimizing the risk of confidentiality breach. There are no known benefits to you for participating in this study, and we cannot and do not guarantee or promise that you will receive any benefits from this study. You will help us to understand how people perceive spoken language. <br><br>PAYMENT: You will be paid at the posted rate. <br><br>PARTICIPANT RIGHTS: If you have read this form and have decided to participate in this project, please understand your participation is voluntary and you have the right to withdraw your consent or discontinue participation at any time without penalty or loss of benefits to which you are otherwise entitled. The alternative is not to participate. You have the right to refuse to answer particular questions. The results of this research study may be presented at scientific or professional meetings or published in scientific journals. Your individual privacy will be maintained in all published and written data resulting from the study. In accordance with scientific norms, the data from this study may be used or shared with other researchers for future research (after removing personally identifying information) without additional consent from you. <br><br>CONTACT INFORMATION: If you have any questions, concerns or complaints about this research study, its procedures, risks and benefits, you should contact the Protocol Director Grace Brown at (616) 498-8188. If you are not satisfied with how this study is being conducted, or if you have any concerns, complaints, or general questions about the research or your rights as a participant, please contact the Stanford Institutional Review Board (IRB) to speak to someone independent of the research team at (650) 723-2480 or toll free at 1-866-680-2906. You can also write to the Stanford IRB, Stanford University, 3000 El Camino Real, Five Palo Alto Square, 4th Floor, Palo Alto, CA 94306 USA. <br><br>WAIVER OF DOCUMENTATION: If you agree to participate in this research, please click the 'Continue' button. </font></p>",,15673,,1,html-button-response,,
907,list3,,,,,,0.0-2.0,,,,,,,,"<p><font size='3'>This study requires you to listen to audio clips. To ensure you can adequately hear the audio presented in this study, the next page will have an audio attention check. Please wear headphones, and be prepared to adjust the volume on your device if necessary. <br><br> When you are ready to begin the audio attention check, click 'Start'. </font></p>",,25683,,2,html-button-response,,
907,list3,,,,,,0.0-3.0,,2,correct,4171,,,,audio/gift.wav,,30018,,3,audio-button-response,,
907,list3,,,,,,0.0-4.0,,0,,1661,,,,<p>Correct! You are ready to begin the study.</p>,,31680,,4,html-button-response,,
907,list3,,,,,,0.0-5.0,,0,,17440,,,,"<p><font size='3'>In this experiment, you will listen to a series of sentences, produced by different speakers. While listening to each sentence, you will be prompted to rate the social characteristics of its speaker. To rate the social characteristics of a speaker, click along the scale that appears on your screen. You may click along this scale after the speaker stops talking. Try to respond as quickly as you can. If you do not respond within ten seconds, the experiment will advance automatically. There will be a progress bar at the top of the screen. When you're ready to hear the first speaker, click ‘Start’. </font></p>",,49121,,5,html-button-response,,
907,list3,,,,,,0.0-6.0-0.0,neutral,9162,,5621,control,5000,723,audio/723_CN4.wav,,54743,,6,audio-slider-response,4,
907,list3,,,,,,0.0-6.0-1.0,,,,,,,,,,55254,,7,html-keyboard-response,,
907,list3,,,,,,0.0-6.0-0.1,neutral,1450,,5899,low,5000,246,audio/246_SN5_low.wav,,61155,,8,audio-slider-response,5,
907,list3,,,,,,0.0-6.0-1.1,,,,,,,,,,61657,,9,html-keyboard-response,,
907,list3,,,,,,0.0-6.0-0.2,neutral,10000,,4149,mid,5000,723,audio/723_SN8_mid.wav,,65809,,10,audio-slider-response,8,
907,list3,,,,,,0.0-6.0-1.2,,,,,,,,,,66310,,11,html-keyboard-response,,
907,list3,,,,,,0.0-6.0-0.3,neutral,0,,4072,control,5000,246,audio/246_CN21.wav,,70388,,12,audio-slider-response,21,
907,list3,,,,,,0.0-6.0-1.3,,,,,,,,,,70890,,13,html-keyboard-response,,
907,list3,,,,,,0.0-6.0-0.4,neutral,0,,3789,control,5000,246,audio/246_CN17.wav,,74689,,14,audio-slider-response,17,
907,list3,,,,,,0.0-6.0-1.4,,,,,,,,,,75200,,15,html-keyboard-response,,
907,list3,,,,,,0.0-6.0-0.5,neutral,0,,4981,control,5000,246,audio/246_CN18.wav,,80187,,16,audio-slider-response,18,
907,list3,,,,,,0.0-6.0-1.5,,,,,,,,,,80688,,17,html-keyboard-response,,
907,list3,,,,,,0.0-6.0-0.6,neutral,7656,,3109,control,5000,723,audio/723_CN21.wav,,83799,,18,audio-slider-response,21,
907,list3,,,,,,0.0-6.0-1.6,,,,,,,,,,84306,,19,html-keyboard-response,,
907,list3,,,,,,0.0-6.0-0.7,neutral,8451,,3699,mid,5000,723,audio/723_SN7_mid.wav,,88001,,20,audio-slider-response,7,
907,list3,,,,,,0.0-6.0-1.7,,,,,,,,,,88512,,21,html-keyboard-response,,
907,list3,,,,,,0.0-6.0-0.8,neutral,77,,3901,control,5000,246,audio/246_CN20.wav,,92417,,22,audio-slider-response,20,
907,list3,,,,,,0.0-6.0-1.8,,,,,,,,,,92922,,23,html-keyboard-response,,
907,list3,,,,,,0.0-6.0-0.9,neutral,0,,2851,high,5000,246,audio/246_SN16_high.wav,,95776,,24,audio-slider-response,16,
907,list3,,,,,,0.0-6.0-1.9,,,,,,,,,,96281,,25,html-keyboard-response,,
907,list3,,,,,,0.0-6.0-0.10,neutral,9659,,3109,control,5000,723,audio/723_CN14.wav,,99396,,26,audio-slider-response,14,
907,list3,,,,,,0.0-6.0-1.10,,,,,,,,,,99902,,27,html-keyboard-response,,
907,list3,,,,,,0.0-6.0-0.11,neutral,9195,,5880,low,5000,723,audio/723_SN5_low.wav,,105782,,28,audio-slider-response,5,
907,list3,,,,,,0.0-6.0-1.11,,,,,,,,,,106289,,29,html-keyboard-response,,
907,list3,,,,,,0.0-6.0-0.12,neutral,27,,2811,low,5000,246,audio/246_SN15_low.wav,,109104,,30,audio-slider-response,15,
907,list3,,,,,,0.0-6.0-1.12,,,,,,,,,,109609,,31,html-keyboard-response,,
907,list3,,,,,,0.0-6.0-0.13,neutral,8484,,3629,high,5000,723,audio/723_SN2_high.wav,,113233,,32,audio-slider-response,2,
907,list3,,,,,,0.0-6.0-1.13,,,,,,,,,,113737,,33,html-keyboard-response,,
907,list3,,,,,,0.0-6.0-0.14,neutral,9460,,2800,control,5000,723,audio/723_CN17.wav,,116535,,34,audio-slider-response,17,
907,list3,,,,,,0.0-6.0-1.14,,,,,,,,,,117046,,35,html-keyboard-response,,
907,list3,,,,,,0.0-6.0-0.15,neutral,7904,,3029,mid,5000,723,audio/723_SN14_mid.wav,,120075,,36,audio-slider-response,14,
907,list3,,,,,,0.0-6.0-1.15,,,,,,,,,,120588,,37,html-keyboard-response,,
907,list3,,,,,,0.0-6.0-0.16,neutral,0,,3349,low,5000,246,audio/246_SN18_low.wav,,123933,,38,audio-slider-response,18,
907,list3,,,,,,0.0-6.0-1.16,,,,,,,,,,124440,,39,html-keyboard-response,,
907,list3,,,,,,0.0-6.0-0.17,neutral,8980,,2709,control,5000,723,audio/723_CN2.wav,,127153,,40,audio-slider-response,2,
907,list3,,,,,,0.0-6.0-1.17,,,,,,,,,,127664,,41,html-keyboard-response,,
907,list3,,,,,,0.0-6.0-0.18,neutral,9890,,3200,low,5000,723,audio/723_SN9_low.wav,,130866,,42,audio-slider-response,9,
907,list3,,,,,,0.0-6.0-1.18,,,,,,,,,,131371,,43,html-keyboard-response,,
907,list3,,,,,,0.0-6.0-0.19,neutral,0,,2520,high,5000,246,audio/246_SN21_high.wav,,133890,,44,audio-slider-response,21,
907,list3,,,,,,0.0-6.0-1.19,,,,,,,,,,134399,,45,html-keyboard-response,,
907,list3,,,,,,0.0-6.0-0.20,neutral,8550,,3611,control,5000,723,audio/723_CN19.wav,,138017,,46,audio-slider-response,19,
907,list3,,,,,,0.0-6.0-1.20,,,,,,,,,,138521,,47,html-keyboard-response,,
907,list3,,,,,,0.0-6.0-0.21,neutral,0,,2560,control,5000,246,audio/246_CN14.wav,,141081,,48,audio-slider-response,14,
907,list3,,,,,,0.0-6.0-1.21,,,,,,,,,,141588,,49,html-keyboard-response,,
907,list3,,,,,,0.0-6.0-0.22,neutral,0,,2840,control,5000,246,audio/246_CN1.wav,,144430,,50,audio-slider-response,1,
907,list3,,,,,,0.0-6.0-1.22,,,,,,,,,,144931,,51,html-keyboard-response,,
907,list3,,,,,,0.0-6.0-0.23,neutral,0,,2709,control,5000,246,audio/246_CN15.wav,,147650,,52,audio-slider-response,15,
907,list3,,,,,,0.0-6.0-1.23,,,,,,,,,,148153,,53,html-keyboard-response,,
907,list3,,,,,,0.0-6.0-0.24,neutral,0,,2501,mid,5000,246,audio/246_SN13_mid.wav,,150650,,54,audio-slider-response,13,
907,list3,,,,,,0.0-6.0-1.24,,,,,,,,,,151163,,55,html-keyboard-response,,
907,list3,,,,,,0.0-6.0-0.25,neutral,9410,,3709,mid,5000,723,audio/723_SN1_mid.wav,,154878,,56,audio-slider-response,1,
907,list3,,,,,,0.0-6.0-1.25,,,,,,,,,,155387,,57,html-keyboard-response,,
907,list3,,,,,,0.0-6.0-0.26,neutral,9890,,5589,control,5000,723,audio/723_CN7.wav,,160970,,58,audio-slider-response,7,
907,list3,,,,,,0.0-6.0-1.26,,,,,,,,,,161480,,59,html-keyboard-response,,
907,list3,,,,,,0.0-6.0-0.27,neutral,10000,,4211,control,5000,723,audio/723_CN5.wav,,165696,,60,audio-slider-response,5,
907,list3,,,,,,0.0-6.0-1.27,,,,,,,,,,166202,,61,html-keyboard-response,,
907,list3,,,,,,0.0-6.0-0.28,neutral,0,,2789,control,5000,246,audio/246_CN4.wav,,168991,,62,audio-slider-response,4,
907,list3,,,,,,0.0-6.0-1.28,,,,,,,,,,169499,,63,html-keyboard-response,,
907,list3,,,,,,0.0-6.0-0.29,neutral,0,,2709,mid,5000,246,audio/246_SN8_mid.wav,,172201,,64,audio-slider-response,8,
907,list3,,,,,,0.0-6.0-1.29,,,,,,,,,,172716,,65,html-keyboard-response,,
907,list3,,,,,,0.0-6.0-0.30,neutral,10000,,3440,mid,5000,723,audio/723_SN3_mid.wav,,176160,,66,audio-slider-response,3,
907,list3,,,,,,0.0-6.0-1.30,,,,,,,,,,176661,,67,html-keyboard-response,,
907,list3,,,,,,0.0-6.0-0.31,neutral,10,,2349,control,5000,246,audio/246_CN16.wav,,179018,,68,audio-slider-response,16,
907,list3,,,,,,0.0-6.0-1.31,,,,,,,,,,179525,,69,html-keyboard-response,,
907,list3,,,,,,0.0-6.0-0.32,neutral,126,,3469,control,5000,246,audio/246_CN8.wav,,182991,,70,audio-slider-response,8,
907,list3,,,,,,0.0-6.0-1.32,,,,,,,,,,183499,,71,html-keyboard-response,,
